Time (s),Gyroscope X (deg/s),Gyroscope Y (deg/s),Gyroscope Z (deg/s),Accelerometer X (g),Accelerometer Y (g),Accelerometer Z (g)
0.0,-0.026290076335877863,0.005435114503816794,-0.08122137404580153,0.128662109375,0.185791015625,0.895263671875
0.005,-0.027541984732824428,0.004213740458015267,-0.08280916030534351,0.13623046875,0.1875,0.886474609375
0.01,-0.029770992366412213,0.004152671755725191,-0.08534351145038169,0.1357421875,0.1826171875,0.891357421875
0.015,-0.031206106870229008,0.0032061068702290076,-0.08674809160305344,0.141845703125,0.18212890625,0.8798828125
0.02,-0.032916030534351146,0.004793893129770993,-0.0875114503816794,0.1396484375,0.17333984375,0.871337890625
0.025,-0.03377099236641221,0.004244274809160306,-0.08882442748091603,0.138427734375,0.168701171875,0.867431640625
0.03,-0.034595419847328245,0.0014045801526717556,-0.09050381679389313,0.128662109375,0.160400390625,0.87451171875
0.035,-0.03523664122137404,0.0007022900763358778,-0.0913587786259542,0.131103515625,0.158935546875,0.86572265625
0.04,-0.03419847328244275,-0.0016793893129770992,-0.09138931297709924,0.129150390625,0.156982421875,0.8583984375
0.045,-0.03389312977099237,-0.005557251908396947,-0.09196946564885497,0.123779296875,0.148193359375,0.855224609375
0.05,-0.03312977099236641,-0.008610687022900763,-0.09380152671755725,0.12353515625,0.144287109375,0.84619140625
0.055,-0.03114503816793893,-0.012549618320610688,-0.09499236641221374,0.127197265625,0.141357421875,0.84326171875
0.06,-0.028213740458015266,-0.015755725190839693,-0.09633587786259543,0.125244140625,0.135986328125,0.84716796875
0.065,-0.026503816793893128,-0.020396946564885495,-0.09810687022900764,0.125244140625,0.126953125,0.849365234375
0.07,-0.02384732824427481,-0.024732824427480916,-0.09887022900763358,0.121337890625,0.122314453125,0.833740234375
0.075,-0.02018320610687023,-0.026717557251908396,-0.10018320610687023,0.134521484375,0.117919921875,0.828369140625
0.08,-0.01682442748091603,-0.03038167938931298,-0.10134351145038169,0.13671875,0.113037109375,0.83251953125
0.085,-0.013526717557251908,-0.031572519083969464,-0.1021679389312977,0.14013671875,0.112060546875,0.84033203125
0.09,-0.010412213740458014,-0.030503816793893128,-0.10341984732824427,0.148193359375,0.109619140625,0.829345703125
0.095,-0.006351145038167939,-0.029618320610687022,-0.10458015267175573,0.16357421875,0.1005859375,0.85205078125
0.1,-0.0017709923664122138,-0.027480916030534354,-0.1050381679389313,0.17236328125,0.106689453125,0.84521484375
0.105,0.0019541984732824426,-0.022137404580152672,-0.104793893129771,0.183837890625,0.09765625,0.842529296875
0.11,0.0038167938931297713,-0.016732824427480916,-0.10451908396946566,0.184814453125,0.09375,0.864501953125
0.115,0.007175572519083969,-0.012977099236641221,-0.10287022900763358,0.183349609375,0.10302734375,0.877197265625
0.12,0.009404580152671755,-0.00781679389312977,-0.10125190839694656,0.189208984375,0.099853515625,0.876953125
0.125,0.010931297709923665,-0.0022290076335877863,-0.0996030534351145,0.20361328125,0.104248046875,0.8818359375
0.13,0.011786259541984732,0.0013129770992366412,-0.09734351145038168,0.186767578125,0.105224609375,0.890869140625
0.135,0.013557251908396946,0.005832061068702291,-0.0947175572519084,0.1875,0.1083984375,0.890625
0.14,0.014381679389312977,0.007358778625954199,-0.0916030534351145,0.18310546875,0.109130859375,0.89306640625
0.145,0.016549618320610686,0.010412213740458014,-0.09025954198473282,0.19482421875,0.101318359375,0.890869140625
0.15,0.016916030534351145,0.011725190839694656,-0.08876335877862596,0.193115234375,0.102783203125,0.9052734375
0.155,0.01847328244274809,0.011236641221374044,-0.08717557251908398,0.18603515625,0.108154296875,0.910400390625
0.16,0.01966412213740458,0.010473282442748092,-0.08586259541984732,0.18603515625,0.108642578125,0.90185546875
0.165,0.020366412213740456,0.00964885496183206,-0.08473282442748092,0.186767578125,0.11181640625,0.910400390625
0.17,0.02134351145038168,0.0077557251908396945,-0.08225954198473281,0.177001953125,0.116455078125,0.907958984375
0.175,0.021068702290076336,0.005862595419847328,-0.08189312977099236,0.189697265625,0.119873046875,0.90771484375
0.18,0.02198473282442748,0.0033893129770992364,-0.0795114503816794,0.1748046875,0.12451171875,0.917724609375
0.185,0.021099236641221375,0.0005496183206106871,-0.07783206106870229,0.174072265625,0.12841796875,0.923583984375
0.19,0.020427480916030537,-0.003114503816793893,-0.07706870229007633,0.171630859375,0.1259765625,0.917724609375
0.195,0.01945038167938931,-0.004030534351145038,-0.07572519083969466,0.187744140625,0.124267578125,0.923583984375
0.2,0.018625954198473283,-0.007969465648854963,-0.07398473282442748,0.18017578125,0.12548828125,0.923828125
0.205,0.01780152671755725,-0.008732824427480915,-0.07319083969465649,0.181396484375,0.132080078125,0.927001953125
0.21,0.01716030534351145,-0.009038167938931299,-0.07254961832061069,0.19091796875,0.125,0.923583984375
0.215,0.01587786259541985,-0.008427480916030534,-0.07099236641221374,0.191650390625,0.130615234375,0.924072265625
0.22,0.014717557251908398,-0.007114503816793893,-0.07096183206106871,0.202392578125,0.123291015625,0.932373046875
0.225,0.012366412213740458,-0.006290076335877862,-0.06989312977099237,0.1953125,0.125732421875,0.935791015625
0.23,0.01102290076335878,-0.004,-0.06891603053435115,0.1904296875,0.124755859375,0.9345703125
0.235,0.008977099236641221,-0.0011908396946564885,-0.06741984732824427,0.1845703125,0.1240234375,0.9267578125
0.24,0.008610687022900763,-0.00027480916030534353,-0.06757251908396947,0.186767578125,0.12548828125,0.926513671875
0.245,0.007267175572519083,0.0005801526717557252,-0.06717557251908397,0.179443359375,0.12255859375,0.91162109375
0.25,0.006381679389312977,0.0013435114503816794,-0.06650381679389314,0.18359375,0.1142578125,0.924072265625
0.255,0.005893129770992366,0.001984732824427481,-0.06516030534351146,0.17822265625,0.119873046875,0.923095703125
0.26,0.006015267175572519,0.0011297709923664123,-0.06418320610687023,0.178466796875,0.117431640625,0.91650390625
0.265,0.006534351145038168,0.002045801526717557,-0.06299236641221374,0.171630859375,0.115966796875,0.9091796875
0.27,0.005954198473282443,0.0018931297709923664,-0.062106870229007634,0.1796875,0.11279296875,0.91748046875
0.275,0.006106870229007634,0.00021374045801526718,-0.06125190839694657,0.17333984375,0.114990234375,0.917236328125
0.28,0.005740458015267175,-0.00015267175572519084,-0.06067175572519084,0.17041015625,0.112060546875,0.911376953125
0.285,0.005923664122137405,-0.000916030534351145,-0.05908396946564885,0.168212890625,0.10791015625,0.91162109375
0.29,0.006656488549618321,-0.0013740458015267176,-0.05929770992366412,0.15771484375,0.115478515625,0.917724609375
0.295,0.006595419847328245,-0.0016793893129770992,-0.05789312977099237,0.153076171875,0.111328125,0.911865234375
0.3,0.006748091603053436,-0.003786259541984733,-0.05658015267175573,0.16015625,0.110595703125,0.899658203125
0.305,0.006595419847328245,-0.00482442748091603,-0.05603053435114504,0.16552734375,0.109130859375,0.905517578125
0.31,0.008396946564885497,-0.005343511450381679,-0.054656488549618326,0.158447265625,0.109619140625,0.90283203125
0.315,0.009587786259541986,-0.005862595419847328,-0.05380152671755725,0.14990234375,0.108642578125,0.8994140625
0.32,0.010595419847328244,-0.00699236641221374,-0.05312977099236641,0.162109375,0.10205078125,0.898193359375
0.325,0.012030534351145037,-0.00699236641221374,-0.05276335877862596,0.164794921875,0.11474609375,0.90869140625
0.33,0.01334351145038168,-0.0061374045801526715,-0.052152671755725195,0.159912109375,0.109619140625,0.902099609375
0.335,0.01563358778625954,-0.005038167938931298,-0.051786259541984736,0.174072265625,0.10595703125,0.90234375
0.34,0.016641221374045802,-0.002412213740458015,-0.05108396946564885,0.17578125,0.1083984375,0.900390625
0.345,0.01761832061068702,-0.0004885496183206107,-0.05010687022900763,0.167236328125,0.111083984375,0.910888671875
0.35,0.018931297709923665,0.0022290076335877863,-0.04873282442748091,0.169921875,0.1123046875,0.91064453125
0.355,0.01996946564885496,0.004,-0.04842748091603053,0.175537109375,0.119140625,0.924072265625
0.36,0.02100763358778626,0.005435114503816794,-0.047969465648854966,0.171142578125,0.115478515625,0.923583984375
0.365,0.02204580152671756,0.008091603053435115,-0.046564885496183206,0.16943359375,0.126220703125,0.924560546875
0.37,0.02186259541984733,0.008854961832061069,-0.04403053435114503,0.180419921875,0.132080078125,0.92333984375
0.375,0.02183206106870229,0.010717557251908398,-0.040916030534351146,0.174072265625,0.135986328125,0.923828125
0.38,0.02235114503816794,0.011511450381679389,-0.03850381679389313,0.173828125,0.1337890625,0.92236328125
0.385,0.022778625954198474,0.014687022900763357,-0.036274809160305344,0.1748046875,0.13232421875,0.92138671875
0.39,0.02384732824427481,0.016702290076335877,-0.034900763358778626,0.1689453125,0.135498046875,0.919921875
0.395,0.024793893129770993,0.018290076335877863,-0.033954198473282446,0.176025390625,0.13525390625,0.9140625
0.4,0.026137404580152672,0.018625954198473283,-0.03038167938931298,0.17333984375,0.135986328125,0.915771484375
0.405,0.026900763358778626,0.017557251908396947,-0.02784732824427481,0.16650390625,0.139892578125,0.9140625
0.41,0.02745038167938931,0.017190839694656488,-0.025740458015267177,0.15869140625,0.148681640625,0.915771484375
0.415,0.028366412213740456,0.016213740458015265,-0.02280916030534351,0.152099609375,0.14501953125,0.921875
0.42,0.028641221374045803,0.01450381679389313,-0.021038167938931297,0.151123046875,0.143798828125,0.919677734375
0.425,0.029068702290076333,0.014198473282442748,-0.018564885496183205,0.148193359375,0.14501953125,0.913330078125
0.43,0.02934351145038168,0.012366412213740458,-0.016549618320610686,0.145751953125,0.153076171875,0.918212890625
0.435,0.029068702290076333,0.011816793893129772,-0.016061068702290075,0.153564453125,0.144775390625,0.92138671875
0.44,0.02964885496183206,0.012213740458015269,-0.014045801526717557,0.14697265625,0.14111328125,0.917236328125
0.445,0.03004580152671756,0.012488549618320612,-0.013160305343511449,0.14697265625,0.14306640625,0.91552734375
0.45,0.02998473282442748,0.014290076335877862,-0.01080916030534351,0.150390625,0.1416015625,0.9091796875
0.455,0.029190839694656488,0.01804580152671756,-0.009038167938931299,0.157470703125,0.154296875,0.9033203125
0.46,0.029435114503816796,0.021068702290076336,-0.006809160305343512,0.15478515625,0.14013671875,0.899658203125
0.465,0.028274809160305343,0.02329770992366412,-0.006106870229007634,0.1494140625,0.145751953125,0.89306640625
0.47,0.029129770992366414,0.02635114503816794,-0.005526717557251908,0.14599609375,0.14453125,0.900634765625
0.475,0.028305343511450382,0.028122137404580153,-0.004061068702290076,0.14697265625,0.142822265625,0.89453125
0.48,0.02769465648854962,0.031022900763358778,-0.002412213740458015,0.141845703125,0.142578125,0.898193359375
0.485,0.027480916030534354,0.032030534351145036,-0.0015572519083969466,0.1396484375,0.145751953125,0.90380859375
0.49,0.026320610687022898,0.03245801526717557,0.0,0.138427734375,0.151123046875,0.90478515625
0.495,0.025740458015267177,0.03471755725190839,0.001251908396946565,0.14111328125,0.153076171875,0.916015625
0.5,0.024916030534351145,0.036274809160305344,0.00183206106870229,0.140625,0.14892578125,0.909912109375
0.505,0.024610687022900764,0.037893129770992365,0.002473282442748092,0.142822265625,0.160888671875,0.9140625
0.51,0.022900763358778626,0.03978625954198473,0.00216793893129771,0.14208984375,0.16748046875,0.9072265625
0.515,0.022076335877862598,0.041404580152671754,0.0025954198473282443,0.14208984375,0.170166015625,0.9150390625
0.52,0.02082442748091603,0.04116030534351146,0.0034809160305343512,0.1328125,0.171142578125,0.922607421875
0.525,0.019480916030534354,0.04033587786259542,0.005435114503816794,0.134521484375,0.17626953125,0.916748046875
0.53,0.018167938931297707,0.04048854961832061,0.006229007633587786,0.14306640625,0.175537109375,0.915283203125
0.535,0.016854961832061068,0.03887022900763359,0.0076946564885496185,0.14013671875,0.183837890625,0.915771484375
0.54,0.015603053435114504,0.03853435114503816,0.00751145038167939,0.13525390625,0.17724609375,0.905029296875
0.545,0.014137404580152672,0.03838167938931298,0.006473282442748092,0.130859375,0.181640625,0.904296875
0.55,0.014076335877862596,0.037099236641221375,0.0060763358778625955,0.1337890625,0.181640625,0.90087890625
0.555,0.013251908396946564,0.03606106870229008,0.0044580152671755725,0.135009765625,0.173095703125,0.890380859375
0.56,0.012793893129770993,0.03374045801526717,0.0033587786259541984,0.129638671875,0.18115234375,0.89501953125
0.565,0.012732824427480915,0.03361832061068702,0.0037251908396946564,0.123779296875,0.181640625,0.896484375
0.57,0.012641221374045802,0.029954198473282442,0.004030534351145038,0.12158203125,0.181396484375,0.904541015625
0.575,0.012977099236641221,0.02784732824427481,0.00467175572519084,0.120849609375,0.17578125,0.90087890625
0.58,0.013740458015267177,0.024488549618320612,0.004977099236641221,0.130126953125,0.178955078125,0.89501953125
0.585,0.014442748091603053,0.023938931297709923,0.005587786259541985,0.129150390625,0.185546875,0.908447265625
0.59,0.014259541984732824,0.023328244274809163,0.006625954198473282,0.127197265625,0.1826171875,0.904296875
0.595,0.014473282442748092,0.02482442748091603,0.007908396946564885,0.12646484375,0.18115234375,0.9111328125
0.6,0.01569465648854962,0.027175572519083972,0.008977099236641221,0.129150390625,0.18017578125,0.917724609375
0.605,0.015114503816793894,0.02815267175572519,0.009618320610687023,0.1318359375,0.1845703125,0.91455078125
0.61,0.014809160305343511,0.030412213740458015,0.010106870229007633,0.129150390625,0.1767578125,0.918212890625
0.615,0.015297709923664122,0.035419847328244276,0.009160305343511449,0.1279296875,0.17724609375,0.906982421875
0.62,0.013954198473282442,0.03911450381679389,0.01148091603053435,0.136474609375,0.181640625,0.911865234375
0.625,0.013740458015267177,0.04183206106870229,0.01398473282442748,0.137939453125,0.183349609375,0.913818359375
0.63,0.012580152671755725,0.04519083969465649,0.01566412213740458,0.130615234375,0.17919921875,0.914794921875
0.635,0.012,0.048030534351145036,0.01761832061068702,0.133056640625,0.1806640625,0.912841796875
0.64,0.010748091603053435,0.04943511450381679,0.019175572519083972,0.123046875,0.18359375,0.910400390625
0.645,0.009251908396946566,0.052335877862595415,0.022320610687022898,0.125732421875,0.18701171875,0.916259765625
0.65,0.008030534351145037,0.0503206106870229,0.02482442748091603,0.109130859375,0.1845703125,0.91162109375
0.655,0.006259541984732824,0.050076335877862595,0.028091603053435114,0.1181640625,0.190185546875,0.906494140625
0.66,0.004152671755725191,0.0473587786259542,0.029740458015267177,0.101318359375,0.19091796875,0.91064453125
0.665,0.002381679389312977,0.045893129770992365,0.031175572519083972,0.09912109375,0.19091796875,0.915283203125
0.67,0.000732824427480916,0.04396946564885496,0.03227480916030535,0.0986328125,0.189208984375,0.909912109375
0.675,-0.0023511450381679387,0.04293129770992366,0.03374045801526717,0.09423828125,0.193115234375,0.914306640625
0.68,-0.00500763358778626,0.03902290076335878,0.03413740458015267,0.084228515625,0.19384765625,0.908935546875
0.685,-0.0077557251908396945,0.03596946564885496,0.03480916030534351,0.08154296875,0.189208984375,0.90283203125
0.69,-0.009709923664122136,0.034229007633587785,0.034381679389312976,0.079345703125,0.19189453125,0.895751953125
0.695,-0.012091603053435115,0.03245801526717557,0.035389312977099234,0.078857421875,0.1845703125,0.902099609375
0.7,-0.01334351145038168,0.031236641221374047,0.037221374045801524,0.08251953125,0.18701171875,0.895263671875
0.705,-0.014473282442748092,0.03126717557251908,0.040091603053435114,0.093505859375,0.1826171875,0.893310546875
0.71,-0.014931297709923663,0.03441221374045801,0.04283969465648855,0.1015625,0.18505859375,0.888671875
0.715,-0.015236641221374045,0.03902290076335878,0.047603053435114506,0.1025390625,0.182373046875,0.90234375
0.72,-0.01596946564885496,0.04229007633587786,0.050076335877862595,0.095458984375,0.18408203125,0.908203125
0.725,-0.016580152671755728,0.047297709923664125,0.05163358778625954,0.095458984375,0.19287109375,0.91015625
0.73,-0.01764885496183206,0.05288549618320611,0.05615267175572519,0.09619140625,0.19921875,0.912109375
0.735,-0.01868702290076336,0.05627480916030535,0.058595419847328245,0.081298828125,0.19677734375,0.904296875
0.74,-0.020213740458015265,0.06106870229007634,0.06143511450381679,0.07666015625,0.2041015625,0.89990234375
0.745,-0.02149618320610687,0.06290076335877863,0.06338931297709924,0.071044921875,0.21435546875,0.90576171875
0.75,-0.022412213740458015,0.0641526717557252,0.06494656488549619,0.0595703125,0.21337890625,0.904541015625
0.755,-0.02280916030534351,0.06265648854961832,0.06629007633587786,0.054931640625,0.210693359375,0.904296875
0.76,-0.02381679389312977,0.059908396946564885,0.06845801526717557,0.0615234375,0.214111328125,0.90576171875
0.765,-0.02396946564885496,0.05557251908396947,0.0703206106870229,0.062744140625,0.2236328125,0.893310546875
0.77,-0.02345038167938931,0.051389312977099234,0.07053435114503817,0.0546875,0.224853515625,0.885009765625
0.775,-0.02247328244274809,0.04555725190839695,0.07300763358778625,0.052734375,0.227783203125,0.8798828125
0.78,-0.0216793893129771,0.04161832061068702,0.07410687022900764,0.051513671875,0.22998046875,0.87158203125
0.785,-0.020946564885496184,0.03651908396946565,0.07474809160305344,0.047607421875,0.232421875,0.86279296875
0.79,-0.01926717557251908,0.0309618320610687,0.07554198473282443,0.04296875,0.234375,0.861328125
0.795,-0.017709923664122138,0.02552671755725191,0.0757557251908397,0.044921875,0.228271484375,0.866943359375
0.8,-0.016396946564885495,0.01734351145038168,0.07706870229007633,0.041015625,0.229248046875,0.8681640625
0.805,-0.015786259541984732,0.012946564885496184,0.07850381679389314,0.034423828125,0.232666015625,0.859130859375
0.81,-0.01566412213740458,0.008396946564885497,0.07945038167938931,0.038818359375,0.229248046875,0.8564453125
0.815,-0.014442748091603053,0.0038778625954198473,0.08030534351145038,0.041015625,0.2275390625,0.854248046875
0.82,-0.013160305343511449,0.0015267175572519086,0.08338931297709924,0.056396484375,0.224609375,0.857177734375
0.825,-0.012702290076335878,-0.0006412213740458015,0.08607633587786259,0.060791015625,0.225341796875,0.849365234375
0.83,-0.010900763358778626,-0.0008244274809160306,0.08845801526717557,0.06689453125,0.219970703125,0.853515625
0.835,-0.008732824427480915,0.0005190839694656489,0.0917557251908397,0.0693359375,0.213623046875,0.841796875
0.84,-0.007145038167938931,0.003267175572519084,0.09590839694656489,0.07666015625,0.218017578125,0.83935546875
0.845,-0.005251908396946565,0.005129770992366412,0.09993893129770993,0.08349609375,0.21142578125,0.833251953125
0.85,-0.0033893129770992364,0.005954198473282443,0.10509923664122137,0.082763671875,0.21923828125,0.835205078125
0.855,-0.0015877862595419848,0.005893129770992366,0.10986259541984732,0.08154296875,0.201171875,0.83544921875
0.86,0.001618320610687023,0.005587786259541985,0.11416793893129772,0.074462890625,0.1923828125,0.83447265625
0.865,0.0038778625954198473,0.005709923664122138,0.12009160305343511,0.07080078125,0.193603515625,0.821044921875
0.87,0.005648854961832061,0.004854961832061068,0.12549618320610686,0.077392578125,0.183837890625,0.82763671875
0.875,0.008763358778625954,0.0038473282442748093,0.1298320610687023,0.068115234375,0.180419921875,0.832275390625
0.88,0.011755725190839695,0.000916030534351145,0.13444274809160306,0.06103515625,0.16943359375,0.82666015625
0.885,0.014564885496183207,-0.0024427480916030535,0.13868702290076337,0.063720703125,0.176513671875,0.83203125
0.89,0.016427480916030537,-0.005648854961832061,0.14561832061068702,0.072021484375,0.173095703125,0.826171875
0.895,0.018595419847328244,-0.008030534351145037,0.15154198473282443,0.081298828125,0.171875,0.83447265625
0.9,0.021740458015267177,-0.01001526717557252,0.1579847328244275,0.08203125,0.164306640625,0.827392578125
0.905,0.02396946564885496,-0.011633587786259541,0.1630229007633588,0.09423828125,0.167236328125,0.8359375
0.91,0.02653435114503817,-0.013374045801526718,0.16827480916030535,0.10546875,0.161865234375,0.83203125
0.915,0.030167938931297707,-0.014198473282442748,0.1754503816793893,0.10986328125,0.168701171875,0.836181640625
0.92,0.033160305343511456,-0.014351145038167938,0.18354198473282443,0.117431640625,0.1630859375,0.840087890625
0.925,0.036732824427480916,-0.011511450381679389,0.1908091603053435,0.129638671875,0.17041015625,0.836669921875
0.93,0.03941984732824427,-0.006809160305343512,0.19896183206106868,0.128662109375,0.1767578125,0.84814453125
0.935,0.041282442748091605,0.0008244274809160306,0.20668702290076338,0.1259765625,0.178466796875,0.850341796875
0.94,0.04308396946564886,0.004885496183206107,0.2126412213740458,0.119873046875,0.1787109375,0.863525390625
0.945,0.04467175572519084,0.007114503816793893,0.21893129770992364,0.110107421875,0.174072265625,0.867919921875
0.95,0.04543511450381679,0.008702290076335878,0.22482442748091602,0.10595703125,0.1787109375,0.863037109375
0.955,0.0473587786259542,0.008549618320610687,0.2308091603053435,0.08935546875,0.16845703125,0.857177734375
0.96,0.04909923664122137,0.0096793893129771,0.23514503816793894,0.093017578125,0.17041015625,0.85546875
0.965,0.051694656488549616,0.00766412213740458,0.23987786259541985,0.080078125,0.158935546875,0.8515625
0.97,0.05493129770992366,0.007419847328244275,0.24445801526717556,0.0869140625,0.168701171875,0.831298828125
0.975,0.05737404580152672,0.0060458015267175575,0.24821374045801528,0.084228515625,0.155517578125,0.82421875
0.98,0.061893129770992365,0.00216793893129771,0.25099236641221373,0.076904296875,0.147705078125,0.818115234375
0.985,0.06522137404580153,-0.00042748091603053435,0.2547786259541985,0.08251953125,0.14453125,0.8271484375
0.99,0.06974045801526718,-0.0043969465648854966,0.25960305343511453,0.08935546875,0.14599609375,0.819091796875
0.995,0.07340458015267176,-0.008916030534351145,0.26393893129770996,0.081787109375,0.139892578125,0.82666015625
1.0,0.07758778625954199,-0.013465648854961832,0.26638167938931295,0.081298828125,0.1337890625,0.822998046875
1.005,0.08073282442748092,-0.018076335877862598,0.2708091603053435,0.0869140625,0.1318359375,0.835693359375
1.01,0.0840916030534351,-0.02222900763358779,0.2762137404580153,0.101806640625,0.134033203125,0.831298828125
1.015,0.08793893129770992,-0.022290076335877863,0.28109923664122133,0.111083984375,0.1298828125,0.82958984375
1.02,0.0924885496183206,-0.021893129770992368,0.28607633587786263,0.12255859375,0.1181640625,0.83447265625
1.025,0.09596946564885496,-0.020549618320610686,0.291175572519084,0.12109375,0.12255859375,0.82763671875
1.03,0.10036641221374046,-0.01951145038167939,0.296030534351145,0.128662109375,0.119140625,0.841064453125
1.035,0.10308396946564885,-0.016061068702290075,0.30323664122137406,0.128662109375,0.123779296875,0.837646484375
1.04,0.10662595419847327,-0.014045801526717557,0.3089770992366412,0.14501953125,0.118408203125,0.840576171875
1.045,0.10873282442748092,-0.012610687022900762,0.315969465648855,0.137939453125,0.120849609375,0.841064453125
1.05,0.1120916030534351,-0.009709923664122136,0.32268702290076334,0.14453125,0.12646484375,0.83935546875
1.055,0.11462595419847328,-0.006778625954198473,0.3297709923664122,0.154296875,0.126220703125,0.843017578125
1.06,0.1172824427480916,-0.004977099236641221,0.336793893129771,0.15478515625,0.1337890625,0.844970703125
1.065,0.12027480916030533,-0.0018625954198473282,0.3448854961832061,0.154541015625,0.131591796875,0.835205078125
1.07,0.12381679389312977,-0.0017404580152671756,0.35038167938931297,0.162841796875,0.135986328125,0.846435546875
1.075,0.12656488549618322,0.0004580152671755725,0.3565496183206107,0.162841796875,0.14453125,0.8369140625
1.08,0.1284885496183206,0.0027786259541984736,0.3659236641221374,0.162353515625,0.1416015625,0.84130859375
1.085,0.1310229007633588,0.0026259541984732823,0.3726412213740458,0.169189453125,0.153564453125,0.85400390625
1.09,0.13297709923664122,0.003450381679389313,0.3807328244274809,0.17431640625,0.16650390625,0.846435546875
1.095,0.1338320610687023,0.004244274809160306,0.38732824427480916,0.176513671875,0.166748046875,0.861328125
1.1,0.13432061068702292,0.004916030534351145,0.3956946564885496,0.17724609375,0.184814453125,0.86376953125
1.105,0.13532824427480916,0.0036335877862595416,0.40384732824427483,0.173583984375,0.185302734375,0.8583984375
1.11,0.1348091603053435,0.005038167938931298,0.40964885496183207,0.18359375,0.19189453125,0.86865234375
1.115,0.13435114503816795,0.005618320610687022,0.4147480916030534,0.172119140625,0.19091796875,0.8896484375
1.12,0.13276335877862597,0.008793893129770993,0.41908396946564885,0.183837890625,0.1982421875,0.88720703125
1.125,0.13001526717557252,0.010778625954198474,0.4243053435114504,0.184814453125,0.2109375,0.89599609375
1.13,0.12864122137404582,0.017038167938931297,0.42809160305343513,0.194091796875,0.210693359375,0.896484375
1.135,0.1276030534351145,0.016732824427480916,0.43251908396946565,0.2119140625,0.21630859375,0.906494140625
1.14,0.12522137404580153,0.021587786259541986,0.436030534351145,0.220947265625,0.225830078125,0.89697265625
1.145,0.12427480916030534,0.025221374045801524,0.44003053435114503,0.2236328125,0.224365234375,0.902099609375
1.15,0.12308396946564885,0.027083969465648856,0.44390839694656486,0.216552734375,0.2275390625,0.90869140625
1.155,0.12241221374045802,0.03169465648854962,0.44625954198473283,0.21923828125,0.2314453125,0.912109375
1.16,0.12259541984732825,0.035480916030534354,0.44806106870229007,0.22119140625,0.22119140625,0.916259765625
1.165,0.12219847328244275,0.03517557251908397,0.4494351145038168,0.224609375,0.23046875,0.9189453125
1.17,0.1236030534351145,0.034900763358778626,0.45053435114503815,0.2177734375,0.235107421875,0.928466796875
1.175,0.12494656488549619,0.030717557251908396,0.45001526717557255,0.21240234375,0.2236328125,0.936767578125
1.18,0.12558778625954198,0.030167938931297707,0.45077862595419843,0.21728515625,0.23681640625,0.952880859375
1.185,0.12748091603053435,0.02598473282442748,0.45319083969465646,0.22900390625,0.234619140625,0.955078125
1.19,0.1288854961832061,0.02134351145038168,0.45413740458015267,0.22900390625,0.24072265625,0.957763671875
1.195,0.1314198473282443,0.018870229007633587,0.45364885496183205,0.239501953125,0.24072265625,0.965576171875
1.2,0.13251908396946563,0.020702290076335877,0.45340458015267177,0.25634765625,0.2421875,0.972412109375
1.205,0.13346564885496184,0.022717557251908396,0.45016793893129775,0.248291015625,0.24072265625,0.989990234375
1.21,0.13532824427480916,0.020427480916030537,0.4489770992366412,0.247802734375,0.244384765625,0.99560546875
1.215,0.13575572519083967,0.019175572519083972,0.4515114503816794,0.269775390625,0.25439453125,1.0029296875
1.22,0.13603053435114504,0.019572519083969463,0.45303816793893126,0.281005859375,0.2529296875,0.99951171875
1.225,0.13505343511450382,0.020763358778625954,0.45389312977099233,0.289794921875,0.248291015625,0.97607421875
1.23,0.13316030534351145,0.023145038167938933,0.45703816793893126,0.28759765625,0.25439453125,0.98486328125
1.235,0.132793893129771,0.026992366412213743,0.45899236641221375,0.2998046875,0.251708984375,0.974365234375
1.24,0.1314198473282443,0.0309618320610687,0.46015267175572516,0.29736328125,0.242919921875,0.959228515625
1.245,0.13068702290076337,0.035114503816793895,0.460793893129771,0.29150390625,0.24853515625,0.9619140625
1.25,0.12854961832061068,0.03887022900763359,0.4624427480916031,0.29638671875,0.244140625,0.950439453125
1.255,0.1260763358778626,0.04213740458015267,0.4658320610687023,0.291015625,0.23193359375,0.938232421875
1.26,0.12357251908396946,0.044641221374045796,0.46635114503816794,0.294189453125,0.220947265625,0.92822265625
1.265,0.1210381679389313,0.047664122137404584,0.4679389312977099,0.2841796875,0.22119140625,0.932861328125
1.27,0.11868702290076336,0.049343511450381676,0.47126717557251907,0.287109375,0.220458984375,0.916259765625
1.275,0.11651908396946566,0.05416793893129771,0.47364885496183207,0.293212890625,0.20703125,0.90966796875
1.28,0.11355725190839695,0.05841221374045801,0.4747480916030534,0.289306640625,0.201416015625,0.892333984375
1.285,0.112,0.061984732824427485,0.4760610687022901,0.282958984375,0.185791015625,0.8828125
1.29,0.10952671755725191,0.06903816793893129,0.4760916030534351,0.291748046875,0.177978515625,0.878173828125
1.295,0.1067175572519084,0.07474809160305344,0.4755725190839694,0.28857421875,0.167724609375,0.87744140625
1.3,0.10433587786259542,0.08012213740458016,0.4761832061068702,0.283935546875,0.157958984375,0.863525390625
1.305,0.10170992366412214,0.08580152671755725,0.4750229007633588,0.29541015625,0.15087890625,0.85009765625
1.31,0.09945038167938931,0.09276335877862596,0.4755725190839694,0.286865234375,0.1474609375,0.847412109375
1.315,0.09682442748091603,0.10143511450381679,0.47407633587786263,0.2978515625,0.135009765625,0.84375
1.32,0.09453435114503818,0.10757251908396946,0.4707175572519084,0.283203125,0.12890625,0.841064453125
1.325,0.09206106870229007,0.1160916030534351,0.467175572519084,0.2822265625,0.12744140625,0.838134765625
1.33,0.09065648854961832,0.12357251908396946,0.462412213740458,0.2841796875,0.1201171875,0.833251953125
1.335,0.0882442748091603,0.12949618320610687,0.4581984732824428,0.285888671875,0.116943359375,0.842529296875
1.34,0.08641221374045802,0.1356030534351145,0.45337404580152674,0.2880859375,0.109375,0.855224609375
1.345,0.08522137404580153,0.14134351145038168,0.446381679389313,0.296630859375,0.10302734375,0.849609375
1.35,0.08445801526717557,0.14903816793893132,0.438412213740458,0.302734375,0.104736328125,0.862548828125
1.355,0.08326717557251907,0.1563053435114504,0.429618320610687,0.31982421875,0.109619140625,0.867431640625
1.36,0.08216793893129772,0.16476335877862597,0.4211908396946565,0.322509765625,0.1142578125,0.871826171875
1.365,0.08170992366412215,0.1732824427480916,0.4120610687022901,0.326171875,0.125732421875,0.889892578125
1.37,0.08042748091603054,0.17908396946564886,0.4022900763358779,0.330078125,0.13037109375,0.900146484375
1.375,0.07981679389312978,0.1846106870229008,0.3933129770992367,0.331298828125,0.13623046875,0.91943359375
1.38,0.07770992366412215,0.19059541984732822,0.3827786259541984,0.32958984375,0.15234375,0.920166015625
1.385,0.07541984732824428,0.19429007633587786,0.3726106870229008,0.33935546875,0.1640625,0.95361328125
1.39,0.07404580152671755,0.19764885496183207,0.3610381679389313,0.338623046875,0.181884765625,0.965576171875
1.395,0.07102290076335878,0.20082442748091603,0.35083969465648857,0.342529296875,0.189453125,0.981201171875
1.4,0.06650381679389314,0.20253435114503815,0.3382900763358779,0.3515625,0.2119140625,0.9970703125
1.405,0.062106870229007634,0.20308396946564886,0.32876335877862595,0.3564453125,0.23193359375,1.02099609375
1.41,0.05593893129770992,0.2007022900763359,0.3196641221374046,0.354248046875,0.254638671875,1.021240234375
1.415,0.04986259541984733,0.19810687022900764,0.30940458015267175,0.3515625,0.2685546875,1.027099609375
1.42,0.04393893129770992,0.19053435114503817,0.300793893129771,0.351318359375,0.286376953125,1.030029296875
1.425,0.03810687022900763,0.1814961832061069,0.2923358778625954,0.329833984375,0.28662109375,1.025634765625
1.43,0.03319083969465649,0.17074809160305343,0.28238167938931297,0.327392578125,0.288330078125,1.012939453125
1.435,0.028885496183206107,0.15905343511450382,0.272793893129771,0.32177734375,0.2890625,1.004638671875
1.44,0.025404580152671757,0.14393893129770993,0.2662290076335878,0.3203125,0.286865234375,0.986572265625
1.445,0.021129770992366414,0.13010687022900763,0.2571297709923664,0.314208984375,0.285888671875,0.974365234375
1.45,0.019480916030534354,0.11621374045801526,0.24916030534351144,0.30615234375,0.283447265625,0.948974609375
1.455,0.017282442748091605,0.10219847328244275,0.24161832061068703,0.304931640625,0.281982421875,0.939697265625
1.46,0.016885496183206106,0.08793893129770992,0.23532824427480914,0.29736328125,0.27734375,0.922119140625
1.465,0.015725190839694658,0.07532824427480916,0.2292824427480916,0.29638671875,0.267822265625,0.891357421875
1.47,0.014259541984732824,0.06293129770992366,0.22500763358778628,0.297119140625,0.269287109375,0.88330078125
1.475,0.014564885496183207,0.0496793893129771,0.22265648854961834,0.29736328125,0.262451171875,0.8740234375
1.48,0.015419847328244276,0.0393587786259542,0.2181679389312977,0.292724609375,0.250244140625,0.844482421875
1.485,0.01566412213740458,0.031297709923664124,0.2157557251908397,0.28662109375,0.2509765625,0.832275390625
1.49,0.0176793893129771,0.025587786259541986,0.21447328244274808,0.284423828125,0.23681640625,0.8212890625
1.495,0.019083969465648856,0.01987786259541985,0.21346564885496183,0.279541015625,0.2265625,0.811279296875
1.5,0.020916030534351145,0.01835114503816794,0.21135877862595417,0.27734375,0.213134765625,0.808837890625
1.505,0.024305343511450382,0.018320610687022898,0.20763358778625954,0.27392578125,0.19482421875,0.80615234375
1.51,0.02635114503816794,0.01951145038167939,0.20378625954198473,0.272216796875,0.186767578125,0.806884765625
1.515,0.030137404580152672,0.02131297709923664,0.20207633587786258,0.281005859375,0.181884765625,0.808837890625
1.52,0.034076335877862594,0.024,0.19954198473282442,0.283447265625,0.16943359375,0.798828125
1.525,0.040030534351145036,0.02833587786259542,0.1979847328244275,0.301513671875,0.161376953125,0.788818359375
1.53,0.04586259541984733,0.03529770992366412,0.19731297709923662,0.30224609375,0.161376953125,0.77880859375
1.535,0.052641221374045796,0.045770992366412216,0.1958473282442748,0.30419921875,0.14599609375,0.77001953125
1.54,0.059389312977099235,0.05673282442748091,0.19438167938931297,0.30224609375,0.145751953125,0.7666015625
1.545,0.06653435114503817,0.06757251908396947,0.1916030534351145,0.31591796875,0.1435546875,0.768310546875
1.55,0.07319083969465649,0.07859541984732825,0.1891908396946565,0.30859375,0.143798828125,0.754150390625
1.555,0.08036641221374045,0.08882442748091603,0.18748091603053435,0.311279296875,0.139892578125,0.75537109375
1.56,0.0875114503816794,0.09835114503816794,0.1860763358778626,0.3076171875,0.142333984375,0.759765625
1.565,0.09432061068702291,0.10738931297709924,0.18534351145038166,0.30517578125,0.141357421875,0.75390625
1.57,0.10094656488549619,0.11468702290076335,0.1854961832061069,0.296630859375,0.146240234375,0.75341796875
1.575,0.10769465648854962,0.12140458015267176,0.18464122137404582,0.2802734375,0.138427734375,0.750244140625
1.58,0.11416793893129772,0.12482442748091603,0.18210687022900762,0.266357421875,0.13427734375,0.74853515625
1.585,0.12070229007633589,0.12772519083969466,0.18033587786259542,0.253173828125,0.131103515625,0.74658203125
1.59,0.12793893129770992,0.12876335877862596,0.17838167938931299,0.244873046875,0.1337890625,0.738037109375
1.595,0.13404580152671755,0.12570992366412215,0.17572519083969465,0.21728515625,0.13134765625,0.73291015625
1.6,0.14030534351145038,0.12320610687022901,0.1724885496183206,0.208984375,0.12255859375,0.7451171875
1.605,0.1455267175572519,0.12076335877862596,0.16806106870229007,0.19091796875,0.132080078125,0.74560546875
1.61,0.15029007633587788,0.11923664122137405,0.16387786259541987,0.18603515625,0.1318359375,0.7724609375
1.615,0.15514503816793893,0.11780152671755725,0.15816793893129769,0.201171875,0.1396484375,0.7890625
1.62,0.1580763358778626,0.11795419847328245,0.15267175572519084,0.213134765625,0.15869140625,0.79931640625
1.625,0.15865648854961834,0.12229007633587785,0.1472671755725191,0.237548828125,0.18310546875,0.80712890625
1.63,0.15774045801526718,0.12870229007633588,0.14555725190839694,0.25146484375,0.215576171875,0.838623046875
1.635,0.15697709923664122,0.1363969465648855,0.14506870229007635,0.279052734375,0.225341796875,0.843505859375
1.64,0.1560916030534351,0.14412213740458013,0.14363358778625954,0.28125,0.2392578125,0.83642578125
1.645,0.1555114503816794,0.15309923664122138,0.14357251908396948,0.286376953125,0.23486328125,0.836181640625
1.65,0.15499236641221373,0.16372519083969464,0.14100763358778629,0.279296875,0.224365234375,0.8330078125
1.655,0.15493129770992364,0.17261068702290078,0.13645801526717558,0.260986328125,0.213623046875,0.834228515625
1.66,0.15563358778625955,0.1772824427480916,0.133618320610687,0.246337890625,0.20751953125,0.8369140625
1.665,0.15584732824427483,0.17844274809160304,0.12946564885496184,0.232177734375,0.204345703125,0.836669921875
1.67,0.15758778625954198,0.17557251908396948,0.1253435114503817,0.21337890625,0.210693359375,0.841552734375
1.675,0.15929770992366413,0.1703206106870229,0.12106870229007632,0.20458984375,0.207763671875,0.835693359375
1.68,0.16146564885496184,0.1618320610687023,0.11532824427480917,0.18408203125,0.204833984375,0.84326171875
1.685,0.16406106870229006,0.15242748091603053,0.10763358778625955,0.159423828125,0.197021484375,0.847412109375
1.69,0.16696183206106868,0.14229007633587787,0.09816793893129772,0.15234375,0.19677734375,0.848388671875
1.695,0.17029007633587787,0.13096183206106868,0.09093129770992367,0.148193359375,0.20458984375,0.8408203125
1.7,0.1734351145038168,0.12009160305343511,0.08390839694656489,0.148193359375,0.20068359375,0.834228515625
1.705,0.17627480916030536,0.11004580152671756,0.07645801526717556,0.146240234375,0.2041015625,0.83642578125
1.71,0.17923664122137403,0.100793893129771,0.07196946564885497,0.151611328125,0.208984375,0.828125
1.715,0.18091603053435112,0.09419847328244275,0.06668702290076335,0.171875,0.2158203125,0.830078125
1.72,0.18283969465648856,0.09190839694656489,0.06186259541984733,0.177001953125,0.220947265625,0.81982421875
1.725,0.1852824427480916,0.09114503816793894,0.055725190839694655,0.183837890625,0.2314453125,0.823974609375
1.73,0.18708396946564887,0.09502290076335877,0.051267175572519086,0.18017578125,0.241455078125,0.81396484375
1.735,0.18894656488549616,0.10192366412213741,0.0467175572519084,0.1865234375,0.25,0.816162109375
1.74,0.1907175572519084,0.11053435114503818,0.04210687022900763,0.180419921875,0.259765625,0.80322265625
1.745,0.19282442748091602,0.120793893129771,0.035847328244274806,0.1767578125,0.263916015625,0.80517578125
1.75,0.19493129770992365,0.13126717557251907,0.03236641221374046,0.175537109375,0.267578125,0.7900390625
1.755,0.19746564885496184,0.1393587786259542,0.02998473282442748,0.165771484375,0.2568359375,0.78955078125
1.76,0.20287022900763357,0.14714503816793895,0.02204580152671756,0.15234375,0.2529296875,0.773681640625
1.765,0.20998473282442748,0.1531297709923664,0.01285496183206107,0.14111328125,0.242431640625,0.76220703125
1.77,0.21810687022900763,0.15804580152671754,0.005954198473282443,0.125244140625,0.241943359375,0.758056640625
1.775,0.22696183206106868,0.16116030534351145,-0.0011297709923664123,0.113037109375,0.2412109375,0.7666015625
1.78,0.23572519083969465,0.1639083969465649,-0.0077251908396946565,0.112548828125,0.247314453125,0.7900390625
1.785,0.2442442748091603,0.16873282442748092,-0.016458015267175573,0.12451171875,0.271484375,0.824462890625
1.79,0.25386259541984735,0.1727022900763359,-0.02552671755725191,0.13427734375,0.29541015625,0.851318359375
1.795,0.26201526717557255,0.1755114503816794,-0.03352671755725191,0.15673828125,0.340576171875,0.88037109375
1.8,0.2690992366412214,0.1819236641221374,-0.04177099236641221,0.173828125,0.395751953125,0.89111328125
1.805,0.27483969465648855,0.19432061068702292,-0.04680916030534351,0.18798828125,0.456298828125,0.90625
1.81,0.2770992366412214,0.20659541984732824,-0.04879389312977099,0.20068359375,0.508056640625,0.930908203125
1.815,0.2779847328244274,0.21645801526717556,-0.05010687022900763,0.201416015625,0.54638671875,0.94482421875
1.82,0.27764885496183206,0.22638167938931297,-0.050961832061068704,0.192626953125,0.570068359375,0.941650390625
1.825,0.27554198473282443,0.23340458015267176,-0.05151145038167939,0.18701171875,0.58349609375,0.9375
1.83,0.2727328244274809,0.23874809160305344,-0.05013740458015267,0.16455078125,0.584716796875,0.93310546875
1.835,0.2690992366412214,0.23957251908396945,-0.04833587786259542,0.1376953125,0.59765625,0.93408203125
1.84,0.26448854961832063,0.23575572519083968,-0.0456793893129771,0.117919921875,0.59521484375,0.904052734375
1.845,0.26003053435114504,0.22885496183206105,-0.04073282442748091,0.0888671875,0.601806640625,0.9013671875
1.85,0.2557862595419847,0.2187175572519084,-0.03697709923664122,0.063720703125,0.594970703125,0.897216796875
1.855,0.2506870229007634,0.20656488549618318,-0.0309618320610687,0.052978515625,0.606201171875,0.891845703125
1.86,0.24375572519083968,0.1930381679389313,-0.023633587786259545,0.039794921875,0.60986328125,0.879638671875
1.865,0.2381679389312977,0.1774351145038168,-0.021099236641221375,0.02099609375,0.592529296875,0.862548828125
1.87,0.23294656488549617,0.1617709923664122,-0.01969465648854962,0.000244140625,0.574462890625,0.839111328125
1.875,0.22757251908396947,0.1478167938931298,-0.017587786259541986,-0.00390625,0.563232421875,0.822998046875
1.88,0.22149618320610687,0.13410687022900764,-0.01184732824427481,-0.0087890625,0.54833984375,0.809814453125
1.885,0.2156946564885496,0.11838167938931297,-0.005435114503816794,-0.011962890625,0.5302734375,0.802001953125
1.89,0.20998473282442748,0.10326717557251908,0.002931297709923664,-0.015380859375,0.518798828125,0.78271484375
1.895,0.20610687022900762,0.08796946564885497,0.010687022900763357,-0.027587890625,0.50732421875,0.75537109375
1.9,0.201587786259542,0.07477862595419847,0.01566412213740458,-0.021240234375,0.499755859375,0.740478515625
1.905,0.20082442748091603,0.06549618320610687,0.019786259541984735,-0.0224609375,0.4951171875,0.71435546875
1.91,0.20058015267175572,0.05853435114503817,0.02250381679389313,-0.01123046875,0.49853515625,0.69677734375
1.915,0.20012213740458015,0.05337404580152672,0.02403053435114504,-0.01318359375,0.496826171875,0.67822265625
1.92,0.200793893129771,0.04867175572519084,0.024213740458015266,-0.00537109375,0.497314453125,0.685791015625
1.925,0.20036641221374046,0.04705343511450382,0.024580152671755725,0.003662109375,0.512451171875,0.69775390625
1.93,0.19786259541984733,0.049404580152671754,0.024580152671755725,0.0234375,0.541015625,0.71826171875
1.935,0.19410687022900763,0.05447328244274809,0.02345038167938931,0.055908203125,0.565673828125,0.74853515625
1.94,0.19013740458015266,0.06366412213740458,0.0229618320610687,0.091064453125,0.6103515625,0.76318359375
1.945,0.18561832061068703,0.07282442748091603,0.023786259541984735,0.1279296875,0.65380859375,0.757568359375
1.95,0.17990839694656488,0.08989312977099236,0.024977099236641223,0.1357421875,0.692626953125,0.753173828125
1.955,0.17370992366412213,0.11062595419847328,0.026259541984732824,0.15234375,0.700927734375,0.736572265625
1.96,0.16803053435114504,0.1350229007633588,0.02729770992366412,0.151123046875,0.71826171875,0.720947265625
1.965,0.16338931297709922,0.1576793893129771,0.027786259541984736,0.140869140625,0.721923828125,0.706787109375
1.97,0.15935877862595418,0.17856488549618318,0.026870229007633587,0.127685546875,0.720947265625,0.697509765625
1.975,0.15468702290076336,0.19193893129770992,0.024427480916030538,0.10546875,0.7255859375,0.690185546875
1.98,0.1514198473282443,0.20033587786259544,0.020274809160305343,0.083740234375,0.7255859375,0.681396484375
1.985,0.14998473282442748,0.20393893129770993,0.017068702290076336,0.066162109375,0.727294921875,0.677490234375
1.99,0.14806106870229008,0.20112977099236642,0.013435114503816794,0.035400390625,0.7197265625,0.661376953125
1.995,0.14827480916030536,0.19364885496183207,0.00983206106870229,0.016845703125,0.7158203125,0.64697265625
2.0,0.14992366412213742,0.18125190839694655,0.007358778625954199,0.00048828125,0.707275390625,0.644775390625
2.005,0.15154198473282443,0.16632061068702292,0.004244274809160306,-0.01806640625,0.700439453125,0.635498046875
2.01,0.15279389312977099,0.14885496183206107,0.000916030534351145,-0.03515625,0.6943359375,0.633544921875
2.015,0.15419847328244274,0.13059541984732823,-0.0018931297709923664,-0.05712890625,0.677978515625,0.643310546875
2.02,0.1530381679389313,0.11407633587786259,-0.0053129770992366415,-0.0751953125,0.6748046875,0.657470703125
2.025,0.15105343511450384,0.09752671755725191,-0.00781679389312977,-0.067626953125,0.678466796875,0.6796875
2.03,0.14787786259541985,0.0796946564885496,-0.010351145038167938,-0.061767578125,0.6796875,0.698486328125
2.035,0.1430229007633588,0.06564885496183205,-0.010717557251908398,-0.042724609375,0.691162109375,0.70556640625
2.04,0.13682442748091603,0.05526717557251909,-0.006503816793893129,-0.016845703125,0.706787109375,0.712890625
2.045,0.13001526717557252,0.0517557251908397,0.0008244274809160306,0.00390625,0.718505859375,0.712646484375
2.05,0.12277862595419847,0.05331297709923664,0.007450381679389313,0.03369140625,0.733154296875,0.708740234375
2.055,0.1153587786259542,0.05737404580152672,0.016702290076335877,0.0556640625,0.73046875,0.701416015625
2.06,0.10861068702290076,0.06906870229007633,0.025404580152671757,0.0712890625,0.722900390625,0.695556640625
2.065,0.10198473282442748,0.08433587786259543,0.03425954198473283,0.0751953125,0.721923828125,0.681396484375
2.07,0.09581679389312978,0.09887022900763358,0.04253435114503817,0.080810546875,0.71875,0.6826171875
2.075,0.08961832061068702,0.11337404580152671,0.05080916030534351,0.07666015625,0.710205078125,0.6708984375
2.08,0.08412213740458016,0.1262290076335878,0.059236641221374044,0.06689453125,0.705078125,0.66845703125
2.085,0.0798473282442748,0.13606106870229007,0.06619847328244274,0.049072265625,0.69091796875,0.662353515625
2.09,0.07572519083969466,0.1433587786259542,0.07233587786259542,0.036376953125,0.682861328125,0.656005859375
2.095,0.07242748091603053,0.14757251908396946,0.07752671755725192,0.02490234375,0.678955078125,0.654052734375
2.1,0.07007633587786259,0.14906870229007635,0.08244274809160305,0.00439453125,0.6767578125,0.66015625
2.105,0.06888549618320611,0.14796946564885496,0.08705343511450381,-0.010986328125,0.66650390625,0.662353515625
2.11,0.0673587786259542,0.14613740458015267,0.09114503816793894,-0.035400390625,0.6513671875,0.6533203125
2.115,0.06601526717557252,0.14134351145038168,0.09291603053435116,-0.050537109375,0.64501953125,0.652099609375
2.12,0.0656793893129771,0.13468702290076337,0.09392366412213742,-0.064697265625,0.638671875,0.658935546875
2.125,0.06482442748091603,0.12653435114503817,0.0948091603053435,-0.07568359375,0.6328125,0.652099609375
2.13,0.06378625954198473,0.11914503816793894,0.09453435114503818,-0.08154296875,0.6357421875,0.668212890625
2.135,0.06262595419847328,0.11462595419847328,0.09502290076335877,-0.082275390625,0.63671875,0.66455078125
2.14,0.0603969465648855,0.10912977099236641,0.09438167938931298,-0.072265625,0.647216796875,0.67236328125
2.145,0.05862595419847328,0.10561832061068702,0.09364885496183206,-0.071044921875,0.641357421875,0.67724609375
2.15,0.05554198473282442,0.10473282442748091,0.09331297709923665,-0.045654296875,0.646484375,0.683837890625
2.155,0.05334351145038168,0.10662595419847327,0.0948091603053435,-0.037109375,0.6513671875,0.678955078125
2.16,0.05035114503816794,0.11178625954198473,0.09645801526717557,-0.027587890625,0.64794921875,0.665283203125
2.165,0.04845801526717557,0.11923664122137405,0.09789312977099236,-0.02392578125,0.650390625,0.66015625
2.17,0.04622900763358778,0.12833587786259543,0.099206106870229,-0.015625,0.64111328125,0.643798828125
2.175,0.04384732824427481,0.1373740458015267,0.09957251908396947,-0.01953125,0.63818359375,0.64501953125
2.18,0.04137404580152672,0.14635114503816793,0.09978625954198474,-0.024169921875,0.631103515625,0.63916015625
2.185,0.03938931297709924,0.15450381679389313,0.10006106870229008,-0.0205078125,0.63525390625,0.64697265625
2.19,0.037526717557251905,0.16097709923664122,0.10085496183206107,-0.03271484375,0.628662109375,0.649169921875
2.195,0.034900763358778626,0.16500763358778628,0.10137404580152672,-0.0419921875,0.630126953125,0.65576171875
2.2,0.03166412213740458,0.1671145038167939,0.10140458015267176,-0.0458984375,0.628662109375,0.658935546875
2.205,0.029404580152671757,0.16781679389312978,0.10109923664122136,-0.05078125,0.6298828125,0.661376953125
2.21,0.02745038167938931,0.16946564885496185,0.10134351145038169,-0.049072265625,0.625732421875,0.669189453125
2.215,0.024916030534351145,0.16803053435114504,0.10097709923664122,-0.0517578125,0.635498046875,0.666015625
2.22,0.022900763358778626,0.16549618320610687,0.10018320610687023,-0.058837890625,0.638427734375,0.668701171875
2.225,0.02134351145038168,0.16378625954198472,0.0995114503816794,-0.05615234375,0.63525390625,0.674072265625
2.23,0.020702290076335877,0.1588702290076336,0.09929770992366412,-0.058837890625,0.636474609375,0.668212890625
2.235,0.019145038167938933,0.15306870229007635,0.09822900763358779,-0.06103515625,0.640625,0.66845703125
2.24,0.018259541984732824,0.14867175572519084,0.09819847328244274,-0.057861328125,0.634765625,0.669921875
2.245,0.01764885496183206,0.14314503816793894,0.09810687022900764,-0.040283203125,0.63720703125,0.653564453125
2.25,0.016916030534351145,0.13764885496183205,0.09780152671755725,-0.042724609375,0.62451171875,0.65771484375
2.255,0.016916030534351145,0.13364885496183207,0.09691603053435115,-0.045166015625,0.626953125,0.654541015625
2.26,0.017190839694656488,0.13044274809160306,0.09685496183206106,-0.040771484375,0.624755859375,0.65478515625
2.265,0.017709923664122138,0.12717557251908398,0.09798473282442748,-0.033447265625,0.610107421875,0.646728515625
2.27,0.018442748091603053,0.12540458015267175,0.09810687022900764,-0.032958984375,0.61376953125,0.645751953125
2.275,0.018992366412213742,0.12201526717557251,0.09890076335877863,-0.03369140625,0.60986328125,0.64208984375
2.28,0.01835114503816794,0.12,0.09923664122137404,-0.02880859375,0.604248046875,0.6376953125
2.285,0.017404580152671757,0.11972519083969466,0.10259541984732824,-0.01708984375,0.607421875,0.629638671875
2.29,0.016916030534351145,0.1183206106870229,0.10641221374045802,-0.01611328125,0.5947265625,0.640380859375
2.295,0.016519083969465647,0.11731297709923665,0.10610687022900764,-0.0234375,0.58642578125,0.639892578125
2.3,0.017221374045801527,0.12027480916030533,0.10534351145038168,-0.030517578125,0.57470703125,0.63330078125
2.305,0.015755725190839693,0.12167938931297709,0.10586259541984733,-0.021240234375,0.5771484375,0.62890625
2.31,0.014045801526717557,0.12348091603053435,0.10803053435114504,-0.02734375,0.582275390625,0.629150390625
2.315,0.013526717557251908,0.12390839694656489,0.10867175572519083,-0.031982421875,0.560546875,0.61767578125
2.32,0.012183206106870228,0.12522137404580153,0.10796946564885497,-0.0390625,0.568115234375,0.612060546875
2.325,0.010076335877862596,0.12442748091603054,0.10995419847328244,-0.031005859375,0.57080078125,0.615478515625
2.33,0.008580152671755725,0.12454961832061069,0.11148091603053435,-0.034912109375,0.558837890625,0.611572265625
2.335,0.008213740458015269,0.12241221374045802,0.1121526717557252,-0.03271484375,0.555419921875,0.600341796875
2.34,0.00732824427480916,0.12109923664122137,0.11053435114503818,-0.032958984375,0.5458984375,0.5986328125
2.345,0.0076335877862595426,0.11969465648854961,0.10992366412213742,-0.037841796875,0.537109375,0.5927734375
2.35,0.007145038167938931,0.11777099236641221,0.1092824427480916,-0.04638671875,0.528564453125,0.592529296875
2.355,0.007022900763358778,0.116793893129771,0.10934351145038168,-0.050048828125,0.52490234375,0.5859375
2.36,0.007053435114503816,0.1126412213740458,0.11035114503816794,-0.039306640625,0.5234375,0.568115234375
2.365,0.008854961832061069,0.10687022900763359,0.10867175572519083,-0.054443359375,0.519287109375,0.583740234375
2.37,0.008763358778625954,0.10033587786259543,0.10836641221374047,-0.056396484375,0.510009765625,0.58154296875
2.375,0.010076335877862596,0.09474809160305343,0.10564885496183206,-0.058349609375,0.50048828125,0.572021484375
2.38,0.012183206106870228,0.08772519083969466,0.10219847328244275,-0.064453125,0.49609375,0.577880859375
2.385,0.012396946564885497,0.08323664122137404,0.1,-0.06005859375,0.49267578125,0.586669921875
2.39,0.012885496183206106,0.07642748091603054,0.0997557251908397,-0.05615234375,0.48974609375,0.590576171875
2.395,0.014748091603053435,0.06882442748091602,0.09798473282442748,-0.04248046875,0.50048828125,0.577880859375
2.4,0.015908396946564884,0.06137404580152672,0.09770992366412215,-0.0361328125,0.4912109375,0.586669921875
2.405,0.01752671755725191,0.056977099236641224,0.0979236641221374,-0.02734375,0.488525390625,0.5859375
2.41,0.019938931297709926,0.05331297709923664,0.0979236641221374,-0.012939453125,0.4921875,0.5712890625
2.415,0.02250381679389313,0.04989312977099237,0.09575572519083969,-0.024658203125,0.485107421875,0.5751953125
2.42,0.025862595419847326,0.04690076335877862,0.09306870229007633,-0.02490234375,0.477783203125,0.573486328125
2.425,0.028213740458015266,0.04534351145038168,0.09187786259541984,-0.019287109375,0.480224609375,0.580810546875
2.43,0.030412213740458015,0.043480916030534354,0.09267175572519083,-0.024658203125,0.48681640625,0.58837890625
2.435,0.03196946564885496,0.042167938931297715,0.09297709923664123,-0.01318359375,0.50244140625,0.602294921875
2.44,0.03487022900763359,0.03926717557251909,0.0923053435114504,-0.014892578125,0.51416015625,0.59814453125
2.445,0.03618320610687023,0.037526717557251905,0.09349618320610686,-0.024658203125,0.533203125,0.603515625
2.45,0.038198473282442746,0.033343511450381676,0.09490076335877863,-0.02001953125,0.542236328125,0.61767578125
2.455,0.040091603053435114,0.0296793893129771,0.09554198473282444,-0.015625,0.541015625,0.618408203125
2.46,0.04161832061068702,0.02787786259541985,0.09575572519083969,-0.024658203125,0.5546875,0.623046875
2.465,0.043389312977099234,0.025374045801526714,0.09627480916030534,-0.0087890625,0.559326171875,0.6318359375
2.47,0.0443969465648855,0.023419847328244273,0.09887022900763358,-0.001708984375,0.551025390625,0.634521484375
2.475,0.044793893129770994,0.021099236641221375,0.10161832061068703,0.000732421875,0.553466796875,0.64404296875
2.48,0.0443969465648855,0.018870229007633587,0.1042442748091603,-0.01025390625,0.543701171875,0.656005859375
2.485,0.04393893129770992,0.017435114503816795,0.10836641221374047,-0.007080078125,0.54541015625,0.651611328125
2.49,0.04351145038167939,0.014320610687022901,0.11245801526717557,-0.0126953125,0.538818359375,0.65234375
2.495,0.04241221374045801,0.01083969465648855,0.11706870229007633,-0.01416015625,0.52880859375,0.6455078125
2.5,0.043022900763358775,0.006748091603053436,0.12125190839694656,-0.026611328125,0.527587890625,0.648193359375
2.505,0.04506870229007634,0.002412213740458015,0.12604580152671754,-0.02001953125,0.5380859375,0.647216796875
2.51,0.047969465648854966,-0.000916030534351145,0.12946564885496184,-0.02587890625,0.54443359375,0.650146484375
2.515,0.051389312977099234,-0.004305343511450382,0.1319083969465649,-0.034423828125,0.554443359375,0.654541015625
2.52,0.05722137404580153,-0.007022900763358778,0.13242748091603054,-0.037841796875,0.576416015625,0.670654296875
2.525,0.06479389312977099,-0.008854961832061069,0.13276335877862597,-0.033203125,0.593505859375,0.6796875
2.53,0.07465648854961832,-0.012763358778625954,0.13068702290076337,-0.045166015625,0.631103515625,0.71044921875
2.535,0.08784732824427481,-0.01334351145038168,0.12647328244274808,-0.038818359375,0.674072265625,0.72216796875
2.54,0.10247328244274809,-0.015206106870229007,0.120793893129771,-0.034423828125,0.7177734375,0.729736328125
2.545,0.11734351145038169,-0.01532824427480916,0.11352671755725191,-0.03369140625,0.777587890625,0.750732421875
2.55,0.1341679389312977,-0.015541984732824428,0.1023206106870229,-0.035400390625,0.84033203125,0.776123046875
2.555,0.14998473282442748,-0.01596946564885496,0.09041221374045802,-0.030029296875,0.89599609375,0.791748046875
2.56,0.16668702290076337,-0.017435114503816795,0.07722137404580152,-0.027587890625,0.94482421875,0.79296875
2.565,0.183206106870229,-0.018106870229007633,0.06467175572519084,-0.02734375,0.984619140625,0.78076171875
2.57,0.19859541984732823,-0.02100763358778626,0.05105343511450382,-0.02587890625,1.01416015625,0.787353515625
2.575,0.2134961832061069,-0.027267175572519082,0.0383206106870229,-0.0302734375,1.046630859375,0.783935546875
2.58,0.22772519083969464,-0.03206106870229008,0.02787786259541985,-0.022216796875,1.07177734375,0.770751953125
2.585,0.23938931297709923,-0.036580152671755725,0.0189618320610687,-0.011962890625,1.09423828125,0.773193359375
2.59,0.24763358778625955,-0.03981679389312977,0.013465648854961832,-0.010986328125,1.1064453125,0.771728515625
2.595,0.25218320610687023,-0.040763358778625955,0.008702290076335878,-0.003173828125,1.11376953125,0.745361328125
2.6,0.2548091603053435,-0.038931297709923665,0.0076946564885496185,0.00341796875,1.10791015625,0.758056640625
2.605,0.25227480916030537,-0.041496183206106874,0.0069618320610687024,0.01123046875,1.078125,0.754150390625
2.61,0.24723664122137404,-0.04922137404580153,0.010564885496183207,0.01025390625,1.049560546875,0.73779296875
2.615,0.24204580152671756,-0.05780152671755725,0.015755725190839693,0.010498046875,1.020263671875,0.713134765625
2.62,0.23587786259541985,-0.06604580152671756,0.02598473282442748,-0.002197265625,1.009033203125,0.697998046875
2.625,0.22748091603053436,-0.0723969465648855,0.03911450381679389,0.01025390625,0.990966796875,0.6728515625
2.63,0.2189618320610687,-0.07349618320610686,0.05254961832061068,0.009521484375,0.9814453125,0.643798828125
2.635,0.20894656488549618,-0.06683969465648855,0.06540458015267175,0.03369140625,0.969482421875,0.627197265625
2.64,0.19801526717557252,-0.04974045801526717,0.07667175572519083,0.052978515625,0.962158203125,0.61767578125
2.645,0.18332824427480915,-0.02516030534351145,0.08668702290076336,0.08935546875,0.96533203125,0.62548828125
2.65,0.16604580152671755,0.004213740458015267,0.0965496183206107,0.120361328125,0.98046875,0.640380859375
2.655,0.15013740458015265,0.035022900763358775,0.104793893129771,0.152587890625,0.996826171875,0.6552734375
2.66,0.1312977099236641,0.06372519083969465,0.11319083969465649,0.162841796875,1.001953125,0.665283203125
2.665,0.11010687022900764,0.09468702290076335,0.12210687022900764,0.154541015625,1.00390625,0.67724609375
2.67,0.08754198473282443,0.12906870229007633,0.12861068702290077,0.143798828125,0.9951171875,0.658203125
2.675,0.06512977099236641,0.1625038167938931,0.136793893129771,0.134521484375,0.994384765625,0.6396484375
2.68,0.04549618320610687,0.19835114503816795,0.1418931297709924,0.130859375,0.98486328125,0.61474609375
2.685,0.024488549618320612,0.23251908396946563,0.1443969465648855,0.134033203125,0.976318359375,0.60498046875
2.69,0.0044274809160305345,0.26198473282442747,0.1435114503816794,0.137939453125,0.955322265625,0.5859375
2.695,-0.014137404580152672,0.28180152671755726,0.14100763358778629,0.140625,0.931884765625,0.583984375
2.7,-0.030931297709923665,0.29523664122137405,0.1369770992366412,0.1318359375,0.89990234375,0.569091796875
2.705,-0.046412213740458015,0.30229007633587784,0.13541984732824427,0.10595703125,0.872314453125,0.553466796875
2.71,-0.05722137404580153,0.3001832061068702,0.13404580152671755,0.091552734375,0.855224609375,0.52197265625
2.715,-0.0656793893129771,0.2875419847328244,0.13038167938931297,0.060546875,0.824951171875,0.508544921875
2.72,-0.07340458015267176,0.2654656488549618,0.12247328244274809,0.034912109375,0.796630859375,0.506591796875
2.725,-0.07914503816793894,0.23508396946564886,0.1136793893129771,0.025634765625,0.7822265625,0.506103515625
2.73,-0.08302290076335878,0.19722137404580153,0.10528244274809159,0.016845703125,0.767333984375,0.494873046875
2.735,-0.08558778625954198,0.1586259541984733,0.09618320610687023,0.006591796875,0.751220703125,0.496337890625
2.74,-0.0873587786259542,0.12027480916030533,0.08748091603053434,0.00439453125,0.74951171875,0.486572265625
2.745,-0.0888854961832061,0.08021374045801527,0.07798473282442749,0.003662109375,0.73828125,0.48095703125
2.75,-0.09038167938931298,0.04445801526717558,0.0692824427480916,0.01220703125,0.73828125,0.483642578125
2.755,-0.09270229007633589,0.009068702290076336,0.06287022900763359,0.0361328125,0.734130859375,0.479248046875
2.76,-0.09545038167938931,-0.024671755725190838,0.05758778625954199,0.06005859375,0.740966796875,0.48291015625
2.765,-0.09838167938931298,-0.05694656488549618,0.05254961832061068,0.07275390625,0.73583984375,0.491943359375
2.77,-0.10183206106870228,-0.08583206106870228,0.04870229007633588,0.080322265625,0.734375,0.481689453125
2.775,-0.10506870229007634,-0.11490076335877863,0.04586259541984733,0.09326171875,0.730712890625,0.491455078125
2.78,-0.11004580152671756,-0.14116030534351146,0.0450381679389313,0.089111328125,0.719482421875,0.482421875
2.785,-0.11435114503816794,-0.164793893129771,0.04317557251908397,0.09423828125,0.71337890625,0.468017578125
2.79,-0.11844274809160305,-0.1875114503816794,0.04027480916030535,0.093505859375,0.708984375,0.470947265625
2.795,-0.12305343511450381,-0.20909923664122138,0.040824427480916026,0.103759765625,0.702880859375,0.4580078125
2.8,-0.12787786259541983,-0.22595419847328244,0.04100763358778626,0.112060546875,0.68603515625,0.45361328125
2.805,-0.133618320610687,-0.2404885496183206,0.04323664122137404,0.11279296875,0.683837890625,0.450927734375
2.81,-0.13844274809160306,-0.2520916030534351,0.04491603053435114,0.124755859375,0.68212890625,0.433349609375
2.815,-0.14250381679389312,-0.26067175572519086,0.04680916030534351,0.123779296875,0.67041015625,0.423095703125
2.82,-0.14635114503816793,-0.26955725190839697,0.04873282442748091,0.1455078125,0.667724609375,0.41552734375
2.825,-0.14903816793893132,-0.27883969465648856,0.05129770992366412,0.15283203125,0.6552734375,0.39892578125
2.83,-0.1520916030534351,-0.2859541984732824,0.05514503816793893,0.158935546875,0.6552734375,0.384765625
2.835,-0.1523053435114504,-0.29080916030534354,0.05829007633587786,0.169189453125,0.64892578125,0.37060546875
2.84,-0.15218320610687022,-0.294381679389313,0.06137404580152672,0.177001953125,0.64306640625,0.365234375
2.845,-0.1503206106870229,-0.2936793893129771,0.06293129770992366,0.177490234375,0.638427734375,0.347412109375
2.85,-0.149587786259542,-0.292030534351145,0.06403053435114503,0.16748046875,0.635498046875,0.338623046875
2.855,-0.14586259541984734,-0.2903206106870229,0.06280916030534352,0.172119140625,0.6328125,0.333984375
2.86,-0.14210687022900761,-0.28598473282442743,0.0638473282442748,0.1708984375,0.63330078125,0.33154296875
2.865,-0.13633587786259543,-0.283206106870229,0.06403053435114503,0.17138671875,0.633544921875,0.328369140625
2.87,-0.1323969465648855,-0.27716030534351144,0.06482442748091603,0.171142578125,0.64111328125,0.330810546875
2.875,-0.12812213740458014,-0.2699541984732824,0.06525190839694656,0.162841796875,0.64453125,0.337158203125
2.88,-0.12494656488549619,-0.25658015267175577,0.06500763358778626,0.14892578125,0.66259765625,0.357177734375
2.885,-0.12225954198473282,-0.241587786259542,0.06494656488549619,0.145751953125,0.676513671875,0.364990234375
2.89,-0.11905343511450381,-0.22653435114503817,0.06396946564885496,0.142822265625,0.693359375,0.376220703125
2.895,-0.11734351145038169,-0.20741984732824428,0.062412213740458015,0.13134765625,0.713134765625,0.395751953125
2.9,-0.11596946564885496,-0.19114503816793893,0.06250381679389314,0.13427734375,0.7255859375,0.402587890625
2.905,-0.11462595419847328,-0.17227480916030535,0.06412213740458016,0.142822265625,0.73291015625,0.41455078125
2.91,-0.11380152671755725,-0.15300763358778627,0.06763358778625954,0.135498046875,0.727783203125,0.40869140625
2.915,-0.11117557251908397,-0.13477862595419848,0.07099236641221374,0.1337890625,0.727294921875,0.413330078125
2.92,-0.10793893129770993,-0.11526717557251907,0.07499236641221374,0.128173828125,0.722412109375,0.40771484375
2.925,-0.1044885496183206,-0.09355725190839695,0.07725190839694657,0.12060546875,0.716796875,0.417724609375
2.93,-0.10073282442748092,-0.07209160305343511,0.07709923664122137,0.105224609375,0.716796875,0.417236328125
2.935,-0.0979236641221374,-0.05129770992366412,0.0763053435114504,0.084716796875,0.712890625,0.42529296875
2.94,-0.0951145038167939,-0.030748091603053435,0.07337404580152672,0.0546875,0.712158203125,0.443603515625
2.945,-0.09242748091603054,-0.012335877862595419,0.06949618320610686,0.033203125,0.72705078125,0.45263671875
2.95,-0.08989312977099236,0.0030839694656488548,0.06509923664122137,0.017822265625,0.734375,0.46923828125
2.955,-0.08699236641221374,0.015755725190839693,0.0597557251908397,0.00146484375,0.7431640625,0.4736328125
2.96,-0.08274809160305344,0.02531297709923664,0.05627480916030535,0.002685546875,0.756591796875,0.4892578125
2.965,-0.07758778625954199,0.03163358778625954,0.051267175572519086,-0.010498046875,0.763916015625,0.5
2.97,-0.07337404580152672,0.0393587786259542,0.0478473282442748,-0.01611328125,0.774169921875,0.501708984375
2.975,-0.06745038167938931,0.047083969465648856,0.04384732824427481,-0.019775390625,0.777587890625,0.4873046875
2.98,-0.06082442748091603,0.05401526717557252,0.03838167938931298,-0.01171875,0.7861328125,0.5009765625
2.985,-0.05413740458015267,0.061740458015267174,0.03297709923664122,-0.02490234375,0.807373046875,0.50244140625
2.99,-0.048854961832061075,0.0715114503816794,0.026137404580152672,-0.024658203125,0.81396484375,0.509033203125
2.995,-0.04293129770992366,0.08048854961832061,0.018748091603053435,-0.0341796875,0.824462890625,0.52880859375
3.0,-0.037526717557251905,0.08806106870229007,0.01050381679389313,-0.043701171875,0.834716796875,0.523193359375
3.005,-0.03190839694656489,0.09978625954198474,0.0020763358778625954,-0.0546875,0.844482421875,0.541015625
3.01,-0.028641221374045803,0.1076030534351145,-0.0069618320610687024,-0.0556640625,0.847900390625,0.548583984375
3.015,-0.024793893129770993,0.11261068702290077,-0.013465648854961832,-0.0693359375,0.859375,0.570556640625
3.02,-0.021954198473282442,0.11658015267175573,-0.020274809160305343,-0.091796875,0.871826171875,0.578369140625
3.025,-0.020916030534351145,0.1199083969465649,-0.028549618320610686,-0.11279296875,0.882080078125,0.590576171875
3.03,-0.019572519083969463,0.12003053435114504,-0.037099236641221375,-0.144775390625,0.89306640625,0.6015625
3.035,-0.01761832061068702,0.11578625954198474,-0.046778625954198474,-0.16552734375,0.8974609375,0.615478515625
3.04,-0.015450381679389313,0.10708396946564885,-0.05841221374045801,-0.180908203125,0.8994140625,0.623291015625
3.045,-0.012885496183206106,0.09410687022900764,-0.07077862595419847,-0.188232421875,0.9013671875,0.62158203125
3.05,-0.007145038167938931,0.0787175572519084,-0.08393893129770993,-0.186279296875,0.91357421875,0.6083984375
3.055,0.00012213740458015266,0.05874809160305343,-0.09661068702290077,-0.18310546875,0.924560546875,0.60498046875
3.06,0.011083969465648854,0.03737404580152672,-0.10873282442748092,-0.166748046875,0.94775390625,0.59619140625
3.065,0.023633587786259545,0.01587786259541985,-0.12143511450381679,-0.15087890625,0.982666015625,0.580322265625
3.07,0.039083969465648856,-0.006259541984732824,-0.13389312977099238,-0.140869140625,1.008056640625,0.56103515625
3.075,0.05413740458015267,-0.02803053435114504,-0.14775572519083968,-0.126708984375,1.049560546875,0.55419921875
3.08,0.06818320610687023,-0.048977099236641224,-0.16125190839694656,-0.13134765625,1.061767578125,0.5556640625
3.085,0.08283969465648855,-0.06827480916030534,-0.17386259541984733,-0.12841796875,1.081787109375,0.55517578125
3.09,0.09679389312977099,-0.08595419847328245,-0.18546564885496183,-0.132080078125,1.085693359375,0.55517578125
3.095,0.10992366412213742,-0.10430534351145039,-0.19627480916030535,-0.135498046875,1.0859375,0.560791015625
3.1,0.12262595419847327,-0.1252824427480916,-0.205587786259542,-0.127197265625,1.067626953125,0.582275390625
3.105,0.13465648854961834,-0.14934351145038166,-0.21123664122137403,-0.122314453125,1.050537109375,0.58251953125
3.11,0.14458015267175572,-0.1741679389312977,-0.21453435114503816,-0.126220703125,1.024169921875,0.59814453125
3.115,0.15532824427480915,-0.19694656488549617,-0.2149618320610687,-0.126953125,0.9970703125,0.58984375
3.12,0.16491603053435114,-0.21722137404580152,-0.21532824427480915,-0.11376953125,0.962158203125,0.59228515625
3.125,0.173587786259542,-0.23413740458015267,-0.21300763358778627,-0.103759765625,0.91796875,0.593017578125
3.13,0.18287022900763358,-0.24451908396946564,-0.21294656488549618,-0.086669921875,0.908447265625,0.58544921875
3.135,0.1901679389312977,-0.24757251908396946,-0.21367938931297709,-0.057861328125,0.88623046875,0.587890625
3.14,0.1962137404580153,-0.24442748091603053,-0.21251908396946564,-0.044189453125,0.859375,0.591552734375
3.145,0.19914503816793894,-0.23407633587786258,-0.21206106870229008,-0.01708984375,0.829833984375,0.590576171875
3.15,0.2003969465648855,-0.21722137404580152,-0.21105343511450383,-0.002685546875,0.802978515625,0.57958984375
3.155,0.201587786259542,-0.19465648854961834,-0.2083969465648855,0.017822265625,0.784423828125,0.570068359375
3.16,0.200793893129771,-0.16909923664122137,-0.20546564885496185,0.031494140625,0.765869140625,0.567138671875
3.165,0.19899236641221374,-0.14595419847328245,-0.20045801526717558,0.03955078125,0.7470703125,0.5498046875
3.17,0.19538931297709922,-0.12366412213740458,-0.19294656488549616,0.04931640625,0.7236328125,0.545166015625
3.175,0.19215267175572517,-0.09993893129770993,-0.18580152671755726,0.048095703125,0.708740234375,0.53369140625
3.18,0.18818320610687023,-0.0768854961832061,-0.17526717557251908,0.055419921875,0.70361328125,0.517822265625
3.185,0.1836946564885496,-0.05474809160305343,-0.16632061068702292,0.045654296875,0.700927734375,0.5126953125
3.19,0.17945038167938931,-0.034229007633587785,-0.15996946564885497,0.046875,0.709716796875,0.508056640625
3.195,0.17575572519083968,-0.01734351145038168,-0.15606106870229008,0.044921875,0.710205078125,0.490234375
3.2,0.1706259541984733,-0.0032061068702290076,-0.15132824427480915,0.0341796875,0.7099609375,0.48828125
3.205,0.16574045801526716,0.005587786259541985,-0.14833587786259542,0.029052734375,0.707275390625,0.496337890625
3.21,0.1622290076335878,0.012030534351145037,-0.1464732824427481,0.01416015625,0.723876953125,0.47314453125
3.215,0.1593893129770992,0.015450381679389313,-0.144793893129771,0.000244140625,0.736328125,0.465087890625
3.22,0.15716030534351144,0.013801526717557251,-0.1452824427480916,-0.015625,0.74169921875,0.46337890625
3.225,0.15505343511450384,0.008641221374045802,-0.1460152671755725,-0.01171875,0.758056640625,0.458740234375
3.23,0.15355725190839695,-0.0038167938931297713,-0.14619847328244273,-0.017333984375,0.76220703125,0.462890625
3.235,0.1522442748091603,-0.017770992366412212,-0.14570992366412214,-0.028564453125,0.770263671875,0.44482421875
3.24,0.15267175572519084,-0.03343511450381679,-0.14796946564885496,-0.0439453125,0.792236328125,0.44189453125
3.245,0.15334351145038166,-0.051022900763358775,-0.14885496183206107,-0.048095703125,0.79296875,0.4404296875
3.25,0.15309923664122138,-0.07413740458015268,-0.1509007633587786,-0.047119140625,0.789306640625,0.4521484375
3.255,0.15248854961832062,-0.09774045801526718,-0.15053435114503816,-0.051025390625,0.785888671875,0.435791015625
3.26,0.1542290076335878,-0.12009160305343511,-0.15203053435114502,-0.052490234375,0.78369140625,0.439453125
3.265,0.15468702290076336,-0.14201526717557253,-0.15163358778625954,-0.0498046875,0.790283203125,0.435791015625
3.27,0.15758778625954198,-0.1637557251908397,-0.15554198473282443,-0.041015625,0.7998046875,0.441650390625
3.275,0.1577709923664122,-0.18436641221374045,-0.15877862595419848,-0.0302734375,0.802734375,0.45263671875
3.28,0.15563358778625955,-0.20122137404580154,-0.16253435114503817,-0.02001953125,0.802734375,0.440673828125
3.285,0.1551145038167939,-0.2163969465648855,-0.16665648854961834,-0.01904296875,0.78369140625,0.449951171875
3.29,0.15380152671755726,-0.22922137404580153,-0.1690381679389313,-0.00537109375,0.778076171875,0.445556640625
3.295,0.1530381679389313,-0.24012213740458013,-0.17019847328244272,0.006591796875,0.769775390625,0.44921875
3.3,0.15010687022900762,-0.24702290076335878,-0.1707175572519084,0.029052734375,0.765380859375,0.4404296875
3.305,0.14683969465648855,-0.25083969465648853,-0.16955725190839696,0.059814453125,0.757568359375,0.441650390625
3.31,0.14225954198473284,-0.24784732824427483,-0.16720610687022902,0.086669921875,0.755615234375,0.444580078125
3.315,0.1363969465648855,-0.24091603053435115,-0.1632977099236641,0.108154296875,0.761474609375,0.44921875
3.32,0.13059541984732823,-0.23019847328244272,-0.15758778625954198,0.13623046875,0.749267578125,0.449951171875
3.325,0.12491603053435116,-0.2165801526717557,-0.15093129770992367,0.15478515625,0.746826171875,0.4560546875
3.33,0.11896183206106871,-0.19932824427480916,-0.14454961832061067,0.17431640625,0.737548828125,0.44775390625
3.335,0.1136793893129771,-0.17880916030534352,-0.13725190839694656,0.18896484375,0.717041015625,0.443359375
3.34,0.10873282442748092,-0.1555114503816794,-0.13132824427480916,0.1923828125,0.7001953125,0.45263671875
3.345,0.1039083969465649,-0.13074809160305345,-0.12516030534351144,0.203369140625,0.688232421875,0.45263671875
3.35,0.09786259541984732,-0.10726717557251908,-0.11877862595419847,0.19482421875,0.673095703125,0.456787109375
3.355,0.09236641221374046,-0.08687022900763358,-0.11138931297709924,0.18798828125,0.669189453125,0.466796875
3.36,0.08509923664122136,-0.06891603053435115,-0.1035114503816794,0.17724609375,0.658935546875,0.479736328125
3.365,0.07832061068702291,-0.055664122137404584,-0.0955114503816794,0.160888671875,0.64892578125,0.484619140625
3.37,0.07004580152671755,-0.04537404580152672,-0.08809160305343511,0.142822265625,0.64990234375,0.505859375
3.375,0.06277862595419847,-0.041038167938931294,-0.08170992366412215,0.119384765625,0.63037109375,0.5107421875
3.38,0.05633587786259542,-0.041954198473282446,-0.07685496183206106,0.1103515625,0.634521484375,0.52685546875
3.385,0.05080916030534351,-0.046106870229007633,-0.07193893129770992,0.08740234375,0.622802734375,0.528564453125
3.39,0.045251908396946566,-0.05319083969465649,-0.06781679389312976,0.0830078125,0.620361328125,0.537353515625
3.395,0.0387175572519084,-0.058809160305343514,-0.0643969465648855,0.0751953125,0.6318359375,0.549072265625
3.4,0.032824427480916026,-0.06659541984732824,-0.06259541984732825,0.063720703125,0.641845703125,0.55810546875
3.405,0.027053435114503817,-0.07523664122137404,-0.05993893129770992,0.070556640625,0.658203125,0.579833984375
3.41,0.01987786259541985,-0.08387786259541984,-0.05722137404580153,0.081298828125,0.671875,0.590087890625
3.415,0.011725190839694656,-0.09059541984732825,-0.053465648854961835,0.096435546875,0.690185546875,0.601318359375
3.42,0.0044274809160305345,-0.09719083969465649,-0.04806106870229008,0.1142578125,0.699462890625,0.619384765625
3.425,-0.003511450381679389,-0.10158778625954198,-0.041801526717557255,0.1279296875,0.70947265625,0.627197265625
3.43,-0.011358778625954198,-0.10317557251908398,-0.035389312977099234,0.126220703125,0.723388671875,0.630859375
3.435,-0.01996946564885496,-0.10198473282442748,-0.029129770992366414,0.14208984375,0.720703125,0.629638671875
3.44,-0.027480916030534354,-0.09746564885496183,-0.022931297709923665,0.131103515625,0.732421875,0.63525390625
3.445,-0.033954198473282446,-0.09355725190839695,-0.016610687022900764,0.1396484375,0.720703125,0.639404296875
3.45,-0.040519083969465644,-0.08931297709923665,-0.01050381679389313,0.137939453125,0.710205078125,0.63818359375
3.455,-0.0456793893129771,-0.08396946564885496,-0.0061679389312977095,0.13916015625,0.708740234375,0.631591796875
3.46,-0.05132824427480916,-0.08018320610687023,-0.001465648854961832,0.14111328125,0.697509765625,0.63623046875
3.465,-0.05630534351145038,-0.07508396946564885,0.002534351145038168,0.14306640625,0.681640625,0.645751953125
3.47,-0.06045801526717558,-0.06922137404580153,0.005129770992366412,0.148681640625,0.667236328125,0.64501953125
3.475,-0.06485496183206106,-0.06534351145038168,0.0096793893129771,0.139892578125,0.652099609375,0.641845703125
3.48,-0.06833587786259543,-0.061221374045801524,0.014137404580152672,0.1396484375,0.634765625,0.647216796875
3.485,-0.0715114503816794,-0.055664122137404584,0.018931297709923665,0.1357421875,0.620849609375,0.643310546875
3.49,-0.07496183206106871,-0.05337404580152672,0.02403053435114504,0.129638671875,0.60888671875,0.658935546875
3.495,-0.07832061068702291,-0.04732824427480916,0.028549618320610686,0.12255859375,0.59912109375,0.66552734375
3.5,-0.08180152671755725,-0.0443969465648855,0.03190839694656489,0.117919921875,0.593017578125,0.671630859375
3.505,-0.08500763358778626,-0.03844274809160305,0.036427480916030534,0.127685546875,0.596923828125,0.6728515625
3.51,-0.08796946564885497,-0.03297709923664122,0.039969465648854965,0.136474609375,0.59326171875,0.6875
3.515,-0.09120610687022901,-0.026748091603053435,0.04403053435114503,0.14892578125,0.6044921875,0.6787109375
3.52,-0.09398473282442749,-0.02003053435114504,0.04961832061068702,0.163818359375,0.61962890625,0.682861328125
3.525,-0.0965496183206107,-0.011969465648854961,0.05502290076335878,0.170654296875,0.63330078125,0.686279296875
3.53,-0.0991145038167939,-0.003938931297709923,0.061740458015267174,0.1806640625,0.633544921875,0.6728515625
3.535,-0.10012213740458016,0.004366412213740458,0.06842748091603053,0.188720703125,0.644775390625,0.67138671875
3.54,-0.10051908396946566,0.013374045801526718,0.07331297709923665,0.189208984375,0.65869140625,0.674560546875
3.545,-0.09948091603053434,0.02058015267175573,0.07887022900763359,0.202392578125,0.66943359375,0.667724609375
3.55,-0.09807633587786259,0.026931297709923665,0.08421374045801526,0.196044921875,0.68212890625,0.666259765625
3.555,-0.09633587786259543,0.03325190839694657,0.0879083969465649,0.19140625,0.6865234375,0.6611328125
3.56,-0.09340458015267175,0.03651908396946565,0.08974045801526719,0.185546875,0.7001953125,0.6611328125
3.565,-0.09117557251908397,0.03822900763358778,0.09148091603053435,0.185302734375,0.70556640625,0.68017578125
3.57,-0.08909923664122137,0.03731297709923664,0.09270229007633589,0.18798828125,0.71337890625,0.673828125
3.575,-0.08656488549618321,0.03676335877862596,0.09490076335877863,0.183349609375,0.715576171875,0.6826171875
3.58,-0.08509923664122136,0.03667175572519084,0.0956946564885496,0.18603515625,0.713134765625,0.6982421875
3.585,-0.08430534351145039,0.034442748091603054,0.0976793893129771,0.187255859375,0.7314453125,0.69189453125
3.59,-0.0843969465648855,0.03389312977099237,0.10012213740458016,0.186279296875,0.723876953125,0.70263671875
3.595,-0.0842442748091603,0.029862595419847326,0.10613740458015268,0.19140625,0.736328125,0.69482421875
3.6,-0.08470229007633588,0.027419847328244273,0.11276335877862596,0.187744140625,0.723388671875,0.692138671875
3.605,-0.0843969465648855,0.02433587786259542,0.11914503816793894,0.189453125,0.718994140625,0.677490234375
3.61,-0.0844885496183206,0.022870229007633587,0.12570992366412215,0.192138671875,0.7041015625,0.677001953125
3.615,-0.08378625954198474,0.021068702290076336,0.13444274809160306,0.199951171875,0.7001953125,0.670654296875
3.62,-0.08271755725190841,0.020519083969465647,0.14387786259541985,0.19140625,0.68994140625,0.657470703125
3.625,-0.07948091603053435,0.021587786259541986,0.15309923664122138,0.1982421875,0.688720703125,0.650634765625
3.63,-0.0759083969465649,0.022167938931297707,0.161618320610687,0.205078125,0.679931640625,0.6572265625
3.635,-0.07114503816793893,0.02384732824427481,0.16909923664122137,0.20068359375,0.669677734375,0.6328125
3.64,-0.06381679389312978,0.026442748091603054,0.1757862595419847,0.211669921875,0.666748046875,0.622314453125
3.645,-0.054045801526717556,0.02983206106870229,0.1821679389312977,0.218017578125,0.659912109375,0.633056640625
3.65,-0.04256488549618321,0.032030534351145036,0.18555725190839695,0.235107421875,0.68115234375,0.630859375
3.655,-0.030076335877862598,0.03612213740458015,0.18705343511450384,0.24365234375,0.705810546875,0.639892578125
3.66,-0.01615267175572519,0.042381679389312976,0.1856793893129771,0.25634765625,0.7353515625,0.666259765625
3.665,-0.0011908396946564885,0.05013740458015267,0.1814961832061069,0.26171875,0.78759765625,0.680419921875
3.67,0.012030534351145037,0.06094656488549618,0.1751145038167939,0.28125,0.818359375,0.683349609375
3.675,0.02668702290076336,0.07349618320610686,0.1675114503816794,0.288330078125,0.851806640625,0.691650390625
3.68,0.04119083969465649,0.08696183206106871,0.15981679389312978,0.2939453125,0.885009765625,0.697509765625
3.685,0.054625954198473284,0.10222900763358779,0.15135877862595418,0.294677734375,0.918701171875,0.70068359375
3.69,0.06595419847328245,0.1202442748091603,0.14366412213740457,0.305908203125,0.95556640625,0.71240234375
3.695,0.07422900763358778,0.1406412213740458,0.1370992366412214,0.30615234375,0.9853515625,0.718505859375
3.7,0.07853435114503818,0.16363358778625953,0.13163358778625953,0.318603515625,1.0126953125,0.71484375
3.705,0.0801526717557252,0.18934351145038167,0.129618320610687,0.33154296875,1.0341796875,0.721435546875
3.71,0.0789618320610687,0.2111145038167939,0.13053435114503817,0.344482421875,1.04248046875,0.713623046875
3.715,0.07758778625954199,0.228793893129771,0.13566412213740459,0.3544921875,1.04541015625,0.704833984375
3.72,0.07532824427480916,0.2454351145038168,0.1440916030534351,0.3564453125,1.051025390625,0.68115234375
3.725,0.07322137404580152,0.2607022900763359,0.15490076335877861,0.366943359375,1.054443359375,0.659912109375
3.73,0.06943511450381679,0.272793893129771,0.16555725190839696,0.357666015625,1.0615234375,0.63720703125
3.735,0.06662595419847328,0.28473282442748094,0.17566412213740457,0.3544921875,1.068359375,0.614501953125
3.74,0.06320610687022901,0.2990229007633588,0.18354198473282443,0.34375,1.07080078125,0.60205078125
3.745,0.060152671755725196,0.31178625954198474,0.1891908396946565,0.332763671875,1.086181640625,0.587890625
3.75,0.05654961832061069,0.3256793893129771,0.19316030534351145,0.31884765625,1.09765625,0.595703125
3.755,0.053587786259541983,0.3374045801526718,0.19658015267175571,0.30908203125,1.11376953125,0.59716796875
3.76,0.05068702290076336,0.34598473282442743,0.19993893129770993,0.294677734375,1.126708984375,0.602783203125
3.765,0.046106870229007633,0.3534351145038168,0.20195419847328244,0.2802734375,1.144775390625,0.604736328125
3.77,0.04109923664122137,0.3591450381679389,0.20348091603053436,0.265380859375,1.166259765625,0.6064453125
3.775,0.03480916030534351,0.36540458015267174,0.20625954198473284,0.258056640625,1.16796875,0.62060546875
3.78,0.028580152671755725,0.3676641221374046,0.2091908396946565,0.25048828125,1.179931640625,0.609375
3.785,0.02152671755725191,0.36940458015267175,0.2123969465648855,0.2412109375,1.189453125,0.61328125
3.79,0.012977099236641221,0.37157251908396943,0.21651908396946565,0.23583984375,1.1826171875,0.59912109375
3.795,0.0032061068702290076,0.373587786259542,0.2214351145038168,0.227783203125,1.18505859375,0.5888671875
3.8,-0.0069618320610687024,0.3758167938931298,0.22726717557251908,0.22509765625,1.18408203125,0.56787109375
3.805,-0.01682442748091603,0.3775267175572519,0.2320916030534351,0.225830078125,1.170654296875,0.544189453125
3.81,-0.0273587786259542,0.3800916030534351,0.23899236641221372,0.219970703125,1.15625,0.544189453125
3.815,-0.038625954198473283,0.3804580152671756,0.24729770992366412,0.213623046875,1.136962890625,0.507568359375
3.82,-0.0522442748091603,0.3809770992366412,0.25425954198473283,0.199951171875,1.1220703125,0.511962890625
3.825,-0.06760305343511451,0.3818931297709923,0.2613129770992367,0.1904296875,1.10888671875,0.498046875
3.83,-0.08412213740458016,0.3801526717557252,0.26772519083969465,0.161376953125,1.0908203125,0.4873046875
3.835,-0.10143511450381679,0.37587786259541983,0.2730992366412214,0.14501953125,1.069580078125,0.47998046875
3.84,-0.1193587786259542,0.36644274809160304,0.27825954198473285,0.11669921875,1.043212890625,0.47021484375
3.845,-0.1373740458015267,0.3540152671755725,0.28198473282442743,0.093505859375,1.000244140625,0.4560546875
3.85,-0.1540152671755725,0.3390229007633588,0.2850381679389313,0.0693359375,0.961181640625,0.444091796875
3.855,-0.17035114503816795,0.31990839694656487,0.28610687022900766,0.0576171875,0.9326171875,0.4267578125
3.86,-0.1843969465648855,0.29731297709923665,0.28827480916030535,0.047607421875,0.895751953125,0.402099609375
3.865,-0.1966412213740458,0.2736793893129771,0.28900763358778625,0.05322265625,0.861328125,0.388916015625
3.87,-0.20714503816793894,0.25059541984732825,0.2886717557251908,0.043212890625,0.828125,0.374267578125
3.875,-0.21670229007633587,0.22690076335877862,0.2894351145038168,0.054931640625,0.804931640625,0.3544921875
3.88,-0.22491603053435114,0.20534351145038168,0.29025954198473286,0.0546875,0.779296875,0.350830078125
3.885,-0.2324885496183206,0.18366412213740457,0.29019847328244275,0.052978515625,0.758056640625,0.3447265625
3.89,-0.2399083969465649,0.16589312977099238,0.2894351145038168,0.047607421875,0.747802734375,0.3310546875
3.895,-0.24699236641221373,0.15145038167938932,0.28741984732824427,0.045166015625,0.724609375,0.329345703125
3.9,-0.2546870229007634,0.1400916030534351,0.28491603053435116,0.033935546875,0.718505859375,0.328369140625
3.905,-0.2607022900763359,0.1299236641221374,0.2813435114503817,0.025634765625,0.69970703125,0.322021484375
3.91,-0.26775572519083973,0.11697709923664122,0.2764580152671756,0.0244140625,0.692626953125,0.31689453125
3.915,-0.2739541984732824,0.10702290076335878,0.27203053435114505,0.0234375,0.668212890625,0.328369140625
3.92,-0.2805496183206107,0.09926717557251907,0.2663206106870229,0.025634765625,0.66943359375,0.324951171875
3.925,-0.2876335877862596,0.09316030534351145,0.2617404580152672,0.0283203125,0.64697265625,0.306640625
3.93,-0.2934961832061069,0.0884885496183206,0.2567022900763359,0.03515625,0.6396484375,0.31005859375
3.935,-0.29789312977099236,0.08494656488549619,0.2515419847328244,0.037353515625,0.638671875,0.300048828125
3.94,-0.30186259541984733,0.08164885496183205,0.2469618320610687,0.044677734375,0.62451171875,0.283447265625
3.945,-0.3044580152671756,0.0796030534351145,0.24134351145038166,0.05078125,0.625,0.27587890625
3.95,-0.30619847328244276,0.07520610687022901,0.23538931297709922,0.05029296875,0.608642578125,0.2685546875
3.955,-0.30677862595419847,0.0728854961832061,0.22861068702290077,0.06201171875,0.6083984375,0.258056640625
3.96,-0.3072671755725191,0.07114503816793893,0.22381679389312978,0.0615234375,0.6123046875,0.249267578125
3.965,-0.3068396946564886,0.0703206106870229,0.21954198473282444,0.058349609375,0.626220703125,0.249755859375
3.97,-0.30644274809160305,0.07163358778625954,0.21471755725190841,0.05224609375,0.63427734375,0.246826171875
3.975,-0.3046106870229008,0.07291603053435115,0.20916030534351146,0.044189453125,0.6337890625,0.256103515625
3.98,-0.30235114503816796,0.07300763358778625,0.20207633587786258,0.035400390625,0.642333984375,0.2548828125
3.985,-0.30024427480916027,0.07141984732824427,0.19425954198473283,0.02685546875,0.65185546875,0.258544921875
3.99,-0.29682442748091603,0.06833587786259543,0.18467175572519084,0.014404296875,0.651123046875,0.263916015625
3.995,-0.2930381679389313,0.06677862595419848,0.17557251908396948,0.005615234375,0.6640625,0.264404296875
4.0,-0.28989312977099235,0.06305343511450381,0.16506870229007634,-0.0029296875,0.67333984375,0.263916015625
4.005,-0.2844580152671756,0.05932824427480916,0.15474809160305344,-0.021484375,0.68212890625,0.271240234375
4.01,-0.280793893129771,0.055664122137404584,0.1437862595419847,-0.037109375,0.69873046875,0.27783203125
4.015,-0.27703816793893127,0.051236641221374044,0.13236641221374046,-0.05078125,0.706787109375,0.27490234375
4.02,-0.27355725190839697,0.046045801526717556,0.11917557251908398,-0.045166015625,0.712890625,0.274658203125
4.025,-0.26732824427480917,0.039969465648854965,0.10708396946564885,-0.05029296875,0.716552734375,0.28173828125
4.03,-0.26125190839694656,0.03126717557251908,0.09209160305343511,-0.0615234375,0.713134765625,0.2744140625
4.035,-0.25386259541984735,0.02345038167938931,0.07783206106870229,-0.062255859375,0.712890625,0.2822265625
4.04,-0.24665648854961833,0.01499236641221374,0.064,-0.068603515625,0.715576171875,0.27392578125
4.045,-0.2378320610687023,0.0076946564885496185,0.05083969465648855,-0.07568359375,0.7158203125,0.287841796875
4.05,-0.22717557251908396,-0.001282442748091603,0.03654961832061068,-0.0751953125,0.72021484375,0.28271484375
4.055,-0.21636641221374045,-0.007236641221374046,0.02283969465648855,-0.078857421875,0.725830078125,0.291259765625
4.06,-0.2046412213740458,-0.014931297709923663,0.006564885496183206,-0.083984375,0.72802734375,0.289794921875
4.065,-0.19233587786259543,-0.02268702290076336,-0.008854961832061069,-0.096435546875,0.7392578125,0.3046875
4.07,-0.17990839694656488,-0.031450381679389315,-0.025893129770992368,-0.101318359375,0.748046875,0.320068359375
4.075,-0.16540458015267176,-0.03938931297709924,-0.04073282442748091,-0.103271484375,0.753173828125,0.324462890625
4.08,-0.15145038167938932,-0.045984732824427485,-0.05541984732824427,-0.10693359375,0.759033203125,0.330322265625
4.085,-0.1367022900763359,-0.05316030534351145,-0.06937404580152672,-0.112060546875,0.772216796875,0.341064453125
4.09,-0.1211908396946565,-0.05945038167938932,-0.08149618320610687,-0.12451171875,0.781982421875,0.345703125
4.095,-0.10525190839694656,-0.06546564885496182,-0.09416793893129771,-0.123291015625,0.784423828125,0.349365234375
4.1,-0.09029007633587785,-0.06912977099236642,-0.10641221374045802,-0.129150390625,0.76904296875,0.35107421875
4.105,-0.0751145038167939,-0.07187786259541984,-0.11764885496183206,-0.13134765625,0.76953125,0.3525390625
4.11,-0.060152671755725196,-0.07297709923664122,-0.1283053435114504,-0.1396484375,0.76708984375,0.365478515625
4.115,-0.04534351145038168,-0.07529770992366412,-0.14006106870229007,-0.142822265625,0.753173828125,0.374755859375
4.12,-0.030992366412213743,-0.07505343511450381,-0.14955725190839694,-0.1435546875,0.7470703125,0.375
4.125,-0.018167938931297707,-0.07514503816793894,-0.1582290076335878,-0.144775390625,0.74169921875,0.391357421875
4.13,-0.005404580152671755,-0.07459541984732825,-0.16604580152671755,-0.15283203125,0.737060546875,0.384033203125
4.135,0.0069618320610687024,-0.07618320610687022,-0.17569465648854962,-0.1552734375,0.724365234375,0.39404296875
4.14,0.02058015267175573,-0.07654961832061069,-0.18558778625954198,-0.159912109375,0.732421875,0.399658203125
4.145,0.03581679389312977,-0.08180152671755725,-0.196793893129771,-0.154541015625,0.7158203125,0.41748046875
4.15,0.05203053435114503,-0.08421374045801526,-0.20906870229007635,-0.159912109375,0.7265625,0.420166015625
4.155,0.07010687022900763,-0.08436641221374046,-0.22320610687022902,-0.1396484375,0.767822265625,0.41357421875
4.16,0.0900763358778626,-0.08787786259541984,-0.23694656488549617,-0.126220703125,0.7978515625,0.418212890625
4.165,0.11059541984732825,-0.09242748091603054,-0.2528549618320611,-0.128662109375,0.8369140625,0.421875
4.17,0.13163358778625953,-0.09325190839694657,-0.2710839694656489,-0.117919921875,0.8740234375,0.422607421875
4.175,0.1522442748091603,-0.09969465648854961,-0.2909007633587786,-0.1220703125,0.914306640625,0.4306640625
4.18,0.17468702290076338,-0.11172519083969466,-0.31090076335877864,-0.125,0.948974609375,0.432373046875
4.185,0.19780152671755727,-0.1234503816793893,-0.3320610687022901,-0.11376953125,0.967529296875,0.441162109375
4.19,0.2205801526717557,-0.13798473282442747,-0.3526717557251908,-0.114501953125,0.9921875,0.449951171875
4.195,0.2429618320610687,-0.15545038167938932,-0.3726106870229008,-0.106201171875,1.003662109375,0.4609375
4.2,0.26509923664122137,-0.17386259541984733,-0.38919083969465645,-0.111328125,1.009033203125,0.468505859375
4.205,0.287206106870229,-0.19224427480916031,-0.4062900763358779,-0.107666015625,1.009521484375,0.477783203125
4.21,0.30604580152671756,-0.2128854961832061,-0.42012213740458015,-0.10009765625,1.006103515625,0.48486328125
4.215,0.3247022900763359,-0.23474809160305343,-0.4326106870229008,-0.09033203125,0.995849609375,0.509765625
4.22,0.34192366412213737,-0.2566106870229008,-0.4406412213740458,-0.072021484375,0.99462890625,0.517578125
4.225,0.35682442748091603,-0.2768854961832061,-0.4458625954198473,-0.063232421875,0.980712890625,0.523681640625
4.23,0.3700763358778626,-0.2940458015267176,-0.44879389312977097,-0.04931640625,0.9765625,0.536865234375
4.235,0.38079389312977097,-0.3102290076335878,-0.44882442748091605,-0.032470703125,0.963134765625,0.543212890625
4.24,0.3886106870229008,-0.32192366412213735,-0.4472671755725191,-0.010009765625,0.955078125,0.553466796875
4.245,0.39487022900763363,-0.32522137404580154,-0.4431145038167939,0.011474609375,0.9580078125,0.562255859375
4.25,0.3982290076335878,-0.32430534351145035,-0.43795419847328243,0.044677734375,0.951904296875,0.583251953125
4.255,0.40039694656488545,-0.31780152671755724,-0.4309618320610687,0.074951171875,0.9482421875,0.586669921875
4.26,0.4009465648854962,-0.3048854961832061,-0.4219541984732824,0.097900390625,0.947998046875,0.60107421875
4.265,0.3996946564885496,-0.28561832061068704,-0.41132824427480913,0.132568359375,0.949462890625,0.5888671875
4.27,0.39615267175572516,-0.2614351145038168,-0.3996946564885496,0.16259765625,0.960693359375,0.583740234375
4.275,0.3900458015267176,-0.23013740458015267,-0.38506870229007634,0.193603515625,0.9677734375,0.57666015625
4.28,0.38317557251908396,-0.1988091603053435,-0.37236641221374045,0.1943359375,0.98681640625,0.59375
4.285,0.37557251908396944,-0.1650992366412214,-0.3595725190839694,0.211669921875,1.010498046875,0.578125
4.29,0.36690076335877864,-0.13331297709923665,-0.3473587786259542,0.216064453125,1.026611328125,0.567626953125
4.295,0.3569160305343511,-0.10708396946564885,-0.3352977099236641,0.213134765625,1.050048828125,0.567138671875
4.299,0.34680916030534353,-0.08442748091603053,-0.32244274809160306,0.207275390625,1.058837890625,0.573974609375
4.304,0.33587786259541985,-0.06870229007633588,-0.30955725190839695,0.197265625,1.073974609375,0.56103515625
4.309,0.32601526717557255,-0.05945038167938932,-0.29673282442748095,0.171875,1.090576171875,0.548095703125
4.314,0.31603053435114503,-0.05487022900763359,-0.2852824427480916,0.15966796875,1.097900390625,0.54736328125
4.319,0.3059541984732824,-0.05590839694656489,-0.27380152671755725,0.14697265625,1.08740234375,0.541259765625
4.324,0.2946564885496183,-0.0650381679389313,-0.2642442748091603,0.14306640625,1.0712890625,0.538818359375
4.329,0.2848854961832061,-0.07926717557251908,-0.25459541984732825,0.138671875,1.05126953125,0.5458984375
4.334,0.272824427480916,-0.09737404580152673,-0.24305343511450384,0.129150390625,1.0302734375,0.560546875
4.339,0.25899236641221374,-0.11676335877862595,-0.23258015267175572,0.125244140625,1.009033203125,0.576416015625
4.344,0.2436030534351145,-0.13477862595419848,-0.21963358778625955,0.12060546875,0.98193359375,0.587646484375
4.349,0.22867175572519086,-0.1554198473282443,-0.20748091603053437,0.1171875,0.943359375,0.58740234375
4.354,0.2141679389312977,-0.17575572519083968,-0.19465648854961834,0.121826171875,0.91064453125,0.5927734375
4.359,0.20094656488549617,-0.19514503816793893,-0.18122137404580152,0.12646484375,0.857666015625,0.588623046875
4.364,0.1874198473282443,-0.21429007633587788,-0.16635114503816795,0.135986328125,0.827392578125,0.580078125
4.369,0.17477862595419846,-0.22922137404580153,-0.15364885496183206,0.1337890625,0.787841796875,0.56884765625
4.374,0.16232061068702291,-0.23963358778625954,-0.14369465648854962,0.143798828125,0.75732421875,0.56884765625
4.379,0.15050381679389313,-0.24931297709923664,-0.13410687022900764,0.162353515625,0.73095703125,0.561767578125
4.384,0.13993893129770993,-0.25453435114503814,-0.12662595419847328,0.175048828125,0.71435546875,0.554931640625
4.389,0.12839694656488548,-0.2577404580152672,-0.1172824427480916,0.18408203125,0.6923828125,0.561279296875
4.394,0.1176793893129771,-0.2582290076335878,-0.10937404580152672,0.197021484375,0.664306640625,0.555908203125
4.399,0.10741984732824428,-0.2548091603053435,-0.10122137404580153,0.214599609375,0.638916015625,0.5458984375
4.404,0.09838167938931298,-0.2511450381679389,-0.09447328244274808,0.21435546875,0.61572265625,0.54248046875
4.409,0.0884885496183206,-0.24305343511450384,-0.08900763358778625,0.215087890625,0.598876953125,0.555908203125
4.414,0.07957251908396946,-0.23468702290076338,-0.08396946564885496,0.22314453125,0.57861328125,0.5517578125
4.419,0.0719083969465649,-0.22696183206106868,-0.07926717557251908,0.22607421875,0.57177734375,0.559814453125
4.424,0.06403053435114503,-0.21972519083969463,-0.07392366412213741,0.230224609375,0.5712890625,0.563232421875
4.429,0.05673282442748091,-0.21334351145038166,-0.06741984732824427,0.236083984375,0.561767578125,0.557373046875
4.434,0.04989312977099237,-0.20638167938931298,-0.06061068702290076,0.244384765625,0.567138671875,0.5771484375
4.439,0.042473282442748096,-0.19877862595419848,-0.05517557251908397,0.254150390625,0.564208984375,0.576904296875
4.444,0.03740458015267176,-0.19120610687022901,-0.04900763358778626,0.26953125,0.554443359375,0.58154296875
4.449,0.033343511450381676,-0.17975572519083968,-0.04406106870229008,0.270263671875,0.555419921875,0.570068359375
4.454,0.02998473282442748,-0.1667175572519084,-0.039725190839694655,0.282470703125,0.554443359375,0.581787109375
4.459,0.026412213740458015,-0.15370992366412212,-0.03340458015267175,0.291259765625,0.552978515625,0.584716796875
4.464,0.023572519083969463,-0.1422290076335878,-0.028793893129770994,0.299560546875,0.553955078125,0.5908203125
4.469,0.021954198473282442,-0.13001526717557252,-0.023328244274809163,0.302978515625,0.54296875,0.591796875
4.474,0.020977099236641223,-0.11969465648854961,-0.018320610687022898,0.29833984375,0.537109375,0.588623046875
4.479,0.021190839694656488,-0.11093129770992367,-0.012732824427480915,0.292724609375,0.5302734375,0.60595703125
4.484,0.02082442748091603,-0.10158778625954198,-0.00781679389312977,0.2861328125,0.52978515625,0.606689453125
4.489,0.020763358778625954,-0.09529770992366411,-0.005526717557251908,0.26318359375,0.512451171875,0.609375
4.494,0.02198473282442748,-0.09053435114503817,-0.003450381679389313,0.253173828125,0.50390625,0.628173828125
4.499,0.024427480916030538,-0.08943511450381679,-0.0021068702290076334,0.2392578125,0.4873046875,0.63232421875
4.504,0.026595419847328244,-0.08821374045801526,-0.0023511450381679387,0.24365234375,0.47705078125,0.633544921875
4.509,0.030595419847328244,-0.08845801526717557,-0.0011297709923664123,0.2490234375,0.468505859375,0.65087890625
4.514,0.034473282442748096,-0.08769465648854961,-0.0016793893129770992,0.2509765625,0.46044921875,0.652587890625
4.519,0.03887022900763359,-0.08690076335877864,-0.0010381679389312977,0.259033203125,0.455810546875,0.66650390625
4.524,0.043419847328244277,-0.08451908396946566,-0.000732824427480916,0.262939453125,0.446044921875,0.66357421875
4.529,0.04873282442748091,-0.07963358778625954,-0.0011908396946564885,0.272216796875,0.44384765625,0.665771484375
4.534,0.055297709923664125,-0.07215267175572519,0.0009465648854961832,0.28466796875,0.435791015625,0.658935546875
4.539,0.061160305343511454,-0.062412213740458015,0.002717557251908397,0.301513671875,0.427734375,0.657958984375
4.544,0.06558778625954198,-0.04977099236641221,0.005862595419847328,0.31298828125,0.43505859375,0.668212890625
4.549,0.06897709923664122,-0.032549618320610686,0.009496183206106871,0.33154296875,0.43994140625,0.6748046875
4.554,0.07138931297709923,-0.011572519083969467,0.015572519083969465,0.338623046875,0.4541015625,0.681884765625
4.559,0.07300763358778625,0.011877862595419847,0.02186259541984733,0.357421875,0.466552734375,0.678955078125
4.564,0.072793893129771,0.03740458015267176,0.030015267175572517,0.36279296875,0.466064453125,0.68310546875
4.569,0.07187786259541984,0.06290076335877863,0.0398473282442748,0.3701171875,0.47265625,0.685791015625
4.574,0.07019847328244275,0.08781679389312977,0.050381679389312976,0.365234375,0.46728515625,0.694091796875
4.579,0.06754198473282443,0.11248854961832061,0.060335877862595415,0.350830078125,0.470458984375,0.7001953125
4.584,0.06390839694656489,0.13334351145038167,0.07102290076335878,0.337890625,0.482421875,0.695556640625
4.589,0.06091603053435114,0.1570381679389313,0.08109923664122137,0.33056640625,0.481201171875,0.688720703125
4.594,0.05722137404580153,0.17554198473282442,0.09129770992366412,0.307373046875,0.489501953125,0.682861328125
4.599,0.05291603053435114,0.1913893129770992,0.09899236641221375,0.286376953125,0.49951171875,0.695068359375
4.604,0.05157251908396947,0.20149618320610688,0.10827480916030534,0.259765625,0.49169921875,0.685546875
4.609,0.04958778625954199,0.20937404580152671,0.1044885496183206,0.25341796875,0.529541015625,0.684326171875
4.614,0.03822900763358778,0.2180152671755725,0.1243969465648855,0.2890625,0.589111328125,0.693359375
4.619,0.03178625954198473,0.22323664122137404,0.14741984732824429,0.311767578125,0.600341796875,0.69384765625
4.624,0.03361832061068702,0.21847328244274808,0.15190839694656488,0.27294921875,0.578857421875,0.677490234375
4.629,0.03923664122137404,0.20683969465648855,0.14180152671755727,0.224609375,0.56591796875,0.6728515625
4.634,0.044152671755725195,0.19435114503816794,0.13364885496183207,0.19384765625,0.581298828125,0.655517578125
4.639,0.04977099236641221,0.1769770992366412,0.1234503816793893,0.15478515625,0.576904296875,0.643798828125
4.644,0.05071755725190839,0.16491603053435114,0.11896183206106871,0.190673828125,0.64404296875,0.65869140625
4.649,0.05117557251908397,0.14372519083969465,0.13444274809160306,0.2431640625,0.699951171875,0.661376953125
4.654,0.05450381679389313,0.12635114503816794,0.14198473282442747,0.26953125,0.7197265625,0.651611328125
4.659,0.0612824427480916,0.10934351145038168,0.136,0.2568359375,0.72509765625,0.642333984375
4.664,0.0680916030534351,0.09795419847328245,0.12027480916030533,0.23828125,0.734375,0.624267578125
4.669,0.07358778625954199,0.09038167938931298,0.10793893129770993,0.24951171875,0.767822265625,0.612548828125
4.674,0.07920610687022901,0.08412213740458016,0.10577099236641221,0.27197265625,0.78955078125,0.60107421875
4.679,0.08525190839694656,0.07636641221374046,0.10180152671755725,0.27294921875,0.799072265625,0.617919921875
4.684,0.08912977099236642,0.06738931297709924,0.10332824427480916,0.28955078125,0.826171875,0.6103515625
4.689,0.09517557251908397,0.05541984732824427,0.11514503816793893,0.30810546875,0.84423828125,0.60205078125
4.694,0.09755725190839695,0.04409160305343512,0.124,0.304931640625,0.83544921875,0.598876953125
4.699,0.10296183206106871,0.03770992366412214,0.1279083969465649,0.312744140625,0.8212890625,0.585693359375
4.704,0.10574045801526719,0.03419847328244275,0.12812213740458014,0.3095703125,0.8173828125,0.578369140625
4.709,0.11013740458015267,0.03019847328244275,0.1312977099236641,0.33251953125,0.80859375,0.574462890625
4.714,0.11370992366412215,0.031297709923664124,0.13914503816793894,0.353271484375,0.829345703125,0.571044921875
4.719,0.11676335877862595,0.031603053435114506,0.15331297709923664,0.367919921875,0.84912109375,0.572509765625
4.724,0.12116030534351145,0.03508396946564886,0.16708396946564885,0.39208984375,0.871826171875,0.5712890625
4.729,0.1274503816793893,0.04146564885496183,0.17914503816793895,0.392822265625,0.89404296875,0.570068359375
4.734,0.13407633587786258,0.04687022900763359,0.1856793893129771,0.3984375,0.9130859375,0.56396484375
4.739,0.1412824427480916,0.05621374045801526,0.1896793893129771,0.40625,0.94775390625,0.564208984375
4.744,0.14845801526717556,0.06888549618320611,0.19065648854961834,0.40625,0.976318359375,0.57373046875
4.749,0.15538931297709924,0.08308396946564885,0.18995419847328246,0.409423828125,1.0244140625,0.58056640625
4.754,0.16430534351145037,0.09902290076335878,0.18815267175572517,0.424560546875,1.05712890625,0.57666015625
4.759,0.1702290076335878,0.11596946564885496,0.18442748091603053,0.420166015625,1.093505859375,0.595703125
4.764,0.17606106870229007,0.13532824427480916,0.17954198473282443,0.434326171875,1.12890625,0.6083984375
4.769,0.17868702290076335,0.1577709923664122,0.17557251908396948,0.4365234375,1.150146484375,0.615234375
4.774,0.1795114503816794,0.18454961832061068,0.17349618320610688,0.443115234375,1.17236328125,0.613037109375
4.779,0.17685496183206106,0.2083969465648855,0.17404580152671756,0.43603515625,1.19921875,0.6162109375
4.784,0.17233587786259544,0.23294656488549617,0.1756030534351145,0.439453125,1.214599609375,0.6220703125
4.789,0.1656793893129771,0.2579236641221374,0.18,0.427001953125,1.227294921875,0.595703125
4.794,0.15709923664122138,0.28109923664122133,0.1852824427480916,0.43017578125,1.23046875,0.587890625
4.799,0.1476030534351145,0.30290076335877864,0.19013740458015266,0.431884765625,1.23193359375,0.579833984375
4.804,0.13651908396946563,0.3235114503816794,0.19819847328244272,0.43017578125,1.240478515625,0.564453125
4.809,0.12586259541984732,0.3412519083969466,0.206412213740458,0.4306640625,1.25390625,0.55126953125
4.814,0.11370992366412215,0.36122137404580157,0.21560305343511452,0.420654296875,1.271484375,0.53857421875
4.819,0.10125190839694656,0.3815267175572519,0.2226259541984733,0.419921875,1.2919921875,0.5244140625
4.824,0.08787786259541984,0.4014045801526718,0.23032061068702292,0.418701171875,1.3134765625,0.5166015625
4.829,0.07462595419847327,0.42235114503816795,0.23731297709923663,0.41064453125,1.33203125,0.495849609375
4.834,0.06149618320610687,0.43948091603053435,0.2436030534351145,0.404296875,1.348876953125,0.498291015625
4.839,0.048519083969465644,0.45725190839694657,0.24845801526717556,0.394287109375,1.3671875,0.486328125
4.844,0.03383206106870229,0.47603053435114506,0.2562442748091603,0.3857421875,1.39794921875,0.484130859375
4.849,0.012549618320610688,0.4942290076335878,0.2731297709923664,0.363037109375,1.38916015625,0.474853515625
4.854,-0.003969465648854962,0.5110229007633588,0.28610687022900766,0.327880859375,1.372314453125,0.48583984375
4.859,-0.018137404580152672,0.5147175572519084,0.28308396946564884,0.316650390625,1.418701171875,0.509521484375
4.864,-0.032824427480916026,0.5212824427480917,0.27099236641221375,0.302734375,1.483642578125,0.52001953125
4.869,-0.05316030534351145,0.5244885496183206,0.265618320610687,0.2783203125,1.519287109375,0.503173828125
4.874,-0.07441221374045802,0.5289770992366413,0.26387786259541984,0.267578125,1.519775390625,0.4765625
4.879,-0.09474809160305343,0.5250992366412214,0.26555725190839696,0.239013671875,1.492431640625,0.466064453125
4.884,-0.11505343511450382,0.514473282442748,0.26922137404580154,0.21728515625,1.4501953125,0.440673828125
4.889,-0.13633587786259543,0.4988702290076336,0.27630534351145036,0.19140625,1.400390625,0.422119140625
4.894,-0.15746564885496184,0.47810687022900766,0.28509923664122133,0.180908203125,1.34765625,0.3916015625
4.899,-0.17682442748091604,0.45160305343511453,0.2939541984732824,0.168701171875,1.30908203125,0.373046875
4.904,-0.19483969465648854,0.42919083969465643,0.30332824427480914,0.15234375,1.269775390625,0.3544921875
4.909,-0.211206106870229,0.40119083969465646,0.31196946564885497,0.141357421875,1.24365234375,0.346435546875
4.914,-0.22732824427480916,0.3726412213740458,0.3213435114503817,0.13134765625,1.1962890625,0.330322265625
4.919,-0.24293129770992367,0.34680916030534353,0.32903816793893126,0.120361328125,1.169921875,0.320556640625
4.924,-0.2556641221374046,0.3208549618320611,0.3359389312977099,0.113525390625,1.129638671875,0.3076171875
4.929,-0.26803053435114504,0.296030534351145,0.3451297709923664,0.108154296875,1.08447265625,0.290283203125
4.934,-0.2794809160305343,0.2720610687022901,0.3530687022900763,0.103515625,1.058837890625,0.2939453125
4.939,-0.2902290076335878,0.252793893129771,0.3581679389312977,0.099609375,1.0107421875,0.28173828125
4.944,-0.3021374045801527,0.2380763358778626,0.3611908396946565,0.10400390625,0.977294921875,0.26806640625
4.949,-0.3106259541984733,0.22787786259541987,0.3651908396946565,0.09912109375,0.941162109375,0.261474609375
4.954,-0.3217404580152672,0.22131297709923664,0.36998473282442745,0.10302734375,0.918701171875,0.26806640625
4.959,-0.33355725190839697,0.21563358778625955,0.37429007633587785,0.09716796875,0.889892578125,0.27783203125
4.964,-0.3444580152671756,0.21322137404580152,0.3793893129770992,0.10302734375,0.871337890625,0.267333984375
4.969,-0.35474809160305343,0.21245801526717556,0.3843358778625954,0.11669921875,0.837890625,0.259765625
4.975,-0.36470229007633587,0.21419847328244274,0.38906870229007634,0.116455078125,0.818115234375,0.24267578125
4.979,-0.37309923664122135,0.21667175572519085,0.3953587786259542,0.131591796875,0.7919921875,0.21826171875
4.984,-0.3814351145038168,0.22070229007633588,0.4003358778625954,0.142822265625,0.7724609375,0.21484375
4.989,-0.3870839694656489,0.2271145038167939,0.4053435114503817,0.15234375,0.749267578125,0.196044921875
4.994,-0.39206106870229007,0.23319083969465648,0.4085496183206107,0.156494140625,0.722412109375,0.186279296875
4.999,-0.395969465648855,0.23813740458015267,0.4108702290076336,0.148681640625,0.702880859375,0.177001953125
5.004,-0.3980458015267176,0.2459236641221374,0.41245801526717557,0.15771484375,0.678955078125,0.170654296875
5.009,-0.3990229007633588,0.2541679389312977,0.4115725190839694,0.1572265625,0.670654296875,0.148681640625
5.014,-0.39938931297709923,0.25740458015267176,0.4094045801526718,0.1513671875,0.654052734375,0.15625
5.019,-0.4009465648854962,0.2617709923664122,0.4065954198473282,0.155029296875,0.651123046875,0.15869140625
5.024,-0.40369465648854963,0.26564885496183205,0.40351145038167935,0.1513671875,0.64892578125,0.180908203125
5.029,-0.4078167938931298,0.2683358778625954,0.3983206106870229,0.154052734375,0.658935546875,0.202392578125
5.034,-0.41172519083969467,0.26641221374045804,0.3944732824427481,0.154541015625,0.67333984375,0.216064453125
5.039,-0.41624427480916026,0.2700458015267176,0.38815267175572515,0.15380859375,0.689453125,0.218994140625
5.044,-0.42073282442748094,0.2694656488549618,0.3833893129770992,0.1416015625,0.6962890625,0.2255859375
5.049,-0.42335877862595417,0.2697709923664122,0.37816793893129774,0.146484375,0.703369140625,0.225341796875
5.054,-0.42396946564885496,0.26641221374045804,0.3723358778625954,0.1357421875,0.703857421875,0.239501953125
5.059,-0.4284885496183206,0.2637251908396947,0.3619236641221374,0.135009765625,0.710205078125,0.261474609375
5.064,-0.4292213740458016,0.2604274809160306,0.3542900763358779,0.141357421875,0.708251953125,0.266845703125
5.069,-0.430381679389313,0.25306870229007633,0.348,0.1533203125,0.712646484375,0.28466796875
5.074,-0.4386259541984733,0.24436641221374045,0.33676335877862595,0.16015625,0.72265625,0.310546875
5.079,-0.4407328244274809,0.23419847328244273,0.3268091603053435,0.1689453125,0.74072265625,0.328125
5.084,-0.44436641221374046,0.22326717557251907,0.3171603053435114,0.181396484375,0.747314453125,0.35498046875
5.089,-0.4524274809160306,0.2120916030534351,0.3096793893129771,0.181884765625,0.77099609375,0.401123046875
5.094,-0.4632977099236641,0.1970992366412214,0.30097709923664123,0.18115234375,0.786376953125,0.442138671875
5.099,-0.4715419847328244,0.17490076335877863,0.2954198473282443,0.19775390625,0.807861328125,0.4755859375
5.104,-0.47883969465648857,0.14604580152671756,0.2935267175572519,0.2060546875,0.822265625,0.505126953125
5.109,-0.48708396946564886,0.11090076335877863,0.2931908396946565,0.21337890625,0.828369140625,0.535888671875
5.114,-0.4948702290076336,0.0747175572519084,0.2942595419847328,0.22509765625,0.83837890625,0.56884765625
5.119,-0.5029618320610687,0.040030534351145036,0.2941374045801527,0.240234375,0.854248046875,0.596923828125
5.124,-0.5097404580152671,0.005740458015267175,0.29407633587786264,0.25439453125,0.868896484375,0.605224609375
5.129,-0.5130687022900763,-0.025770992366412213,0.29410687022900767,0.281005859375,0.86865234375,0.611083984375
5.134,-0.5147786259541984,-0.0513587786259542,0.29355725190839693,0.29150390625,0.879150390625,0.6201171875
5.139,-0.5187480916030535,-0.06723664122137404,0.29099236641221377,0.31982421875,0.8955078125,0.63134765625
5.144,-0.5228091603053435,-0.07209160305343511,0.2864732824427481,0.328857421875,0.890625,0.663330078125
5.149,-0.5284885496183206,-0.06845801526717557,0.2804580152671756,0.3447265625,0.895751953125,0.67724609375
5.154,-0.5339541984732824,-0.059694656488549616,0.2722137404580153,0.348876953125,0.8916015625,0.71630859375
5.159,-0.5393587786259542,-0.045984732824427485,0.26332824427480916,0.36962890625,0.884765625,0.747802734375
5.164,-0.5442442748091603,-0.027419847328244273,0.2563358778625954,0.382568359375,0.870361328125,0.767578125
5.169,-0.5494961832061068,-0.003236641221374046,0.2501984732824427,0.40576171875,0.852783203125,0.789306640625
5.174,-0.5529465648854962,0.02253435114503817,0.24635114503816793,0.419677734375,0.83349609375,0.805908203125
5.179,-0.5562137404580153,0.05261068702290076,0.2438167938931298,0.441650390625,0.81396484375,0.818359375
5.184,-0.5571297709923664,0.08613740458015268,0.24247328244274807,0.46142578125,0.791748046875,0.81103515625
5.189,-0.5557557251908397,0.12091603053435115,0.24122137404580152,0.480224609375,0.76220703125,0.81982421875
5.194,-0.5533740458015267,0.15685496183206107,0.23966412213740457,0.491455078125,0.736083984375,0.818359375
5.199,-0.5518167938931298,0.19505343511450382,0.23764885496183205,0.49609375,0.71240234375,0.8232421875
5.204,-0.5483358778625954,0.23706870229007634,0.23584732824427482,0.486572265625,0.70166015625,0.81884765625
5.209,-0.5454351145038168,0.2814045801526718,0.23429007633587787,0.458740234375,0.68505859375,0.82275390625
5.214,-0.5446412213740458,0.3235114503816794,0.2344732824427481,0.4404296875,0.677734375,0.835205078125
5.219,-0.5428091603053435,0.36717557251908395,0.23331297709923662,0.420166015625,0.666748046875,0.845458984375
5.224,-0.5408549618320612,0.40473282442748093,0.23227480916030535,0.393798828125,0.650634765625,0.860595703125
5.229,-0.537587786259542,0.4451297709923664,0.23126717557251908,0.37158203125,0.62890625,0.858154296875
5.234,-0.5326717557251908,0.4746870229007633,0.22931297709923662,0.334716796875,0.602783203125,0.868896484375
5.239,-0.5257099236641222,0.5027480916030534,0.2270229007633588,0.31201171875,0.579345703125,0.87744140625
5.244,-0.5161832061068702,0.5234503816793894,0.2223206106870229,0.28955078125,0.55419921875,0.882568359375
5.249,-0.5043664122137405,0.538412213740458,0.21404580152671757,0.263427734375,0.540283203125,0.887939453125
5.254,-0.48946564885496185,0.5498015267175573,0.2041832061068702,0.24072265625,0.533447265625,0.893310546875
5.259,-0.47285496183206105,0.5557557251908397,0.193618320610687,0.217529296875,0.526123046875,0.89892578125
5.264,-0.45355725190839696,0.5557251908396946,0.18274809160305344,0.197998046875,0.51513671875,0.897216796875
5.269,-0.4305648854961832,0.5545954198473282,0.17087022900763357,0.186279296875,0.512939453125,0.89892578125
5.274,-0.40974045801526715,0.5629618320610686,0.16094656488549616,0.18603515625,0.5078125,0.87109375
5.279,-0.3858931297709923,0.5812213740458015,0.15160305343511452,0.193359375,0.5048828125,0.886474609375
5.284,-0.36589312977099236,0.596763358778626,0.142412213740458,0.228759765625,0.51416015625,0.931884765625
5.289,-0.34830534351145037,0.6062290076335878,0.13325190839694656,0.257568359375,0.527099609375,0.981689453125
5.294,-0.33410687022900765,0.6186564885496183,0.12809160305343512,0.271484375,0.5361328125,0.984130859375
5.299,-0.32390839694656487,0.6366106870229007,0.1287328244274809,0.263916015625,0.54541015625,0.984619140625
5.304,-0.31917557251908396,0.6555725190839695,0.13435114503816795,0.21923828125,0.531982421875,0.97802734375
5.309,-0.31731297709923667,0.6718167938931298,0.14180152671755727,0.1767578125,0.508056640625,0.958740234375
5.314,-0.31914503816793893,0.6835419847328243,0.15025954198473285,0.106689453125,0.45947265625,0.958984375
5.319,-0.323236641221374,0.6788396946564885,0.1565801526717557,0.030029296875,0.4169921875,0.959228515625
5.324,-0.328,0.6621679389312978,0.16204580152671755,-0.04052734375,0.383056640625,0.96044921875
5.329,-0.3319083969465649,0.6317251908396946,0.16812213740458015,-0.105224609375,0.35693359375,0.952392578125
5.334,-0.335175572519084,0.5893129770992366,0.17346564885496185,-0.16455078125,0.3359375,0.918212890625
5.339,-0.3380763358778626,0.5449770992366413,0.17682442748091604,-0.22509765625,0.3349609375,0.89697265625
5.344,-0.3408854961832061,0.5043969465648854,0.1782290076335878,-0.265869140625,0.3154296875,0.872314453125
5.349,-0.3416793893129771,0.4734045801526718,0.17548091603053437,-0.26904296875,0.30224609375,0.853759765625
5.354,-0.34174045801526715,0.4340763358778626,0.16955725190839696,-0.259521484375,0.307373046875,0.856201171875
5.359,-0.3397557251908397,0.39887022900763364,0.15908396946564887,-0.250244140625,0.3095703125,0.846435546875
5.364,-0.3385954198473282,0.3611297709923664,0.1526106870229008,-0.216796875,0.33740234375,0.833740234375
5.369,-0.3316641221374046,0.32848854961832064,0.13838167938931298,-0.219482421875,0.312255859375,0.79638671875
5.374,-0.327969465648855,0.3059541984732824,0.12958778625954198,-0.17333984375,0.344482421875,0.787109375
5.379,-0.3242748091603053,0.28516030534351144,0.13062595419847328,-0.139892578125,0.342529296875,0.75244140625
5.384,-0.31490076335877865,0.27926717557251907,0.12332824427480917,-0.107421875,0.321044921875,0.705078125
5.389,-0.301618320610687,0.2957557251908397,0.10967938931297709,-0.062744140625,0.29638671875,0.661865234375
5.394,-0.2894045801526718,0.3170381679389313,0.09374045801526718,-0.010986328125,0.27392578125,0.658935546875
5.399,-0.28003053435114506,0.3280916030534351,0.08149618320610687,0.010009765625,0.271728515625,0.674072265625
5.404,-0.27364885496183206,0.3384732824427481,0.07395419847328244,0.039306640625,0.271484375,0.690673828125
5.409,-0.26848854961832064,0.3512671755725191,0.07276335877862596,0.05029296875,0.27783203125,0.690673828125
5.414,-0.26668702290076335,0.361618320610687,0.07419847328244275,0.066162109375,0.28076171875,0.7021484375
5.419,-0.2658320610687023,0.3622900763358779,0.07804580152671756,0.0498046875,0.27197265625,0.703857421875
5.424,-0.2643664122137404,0.35755725190839693,0.08085496183206106,0.000244140625,0.257568359375,0.68798828125
5.429,-0.26244274809160306,0.34858015267175574,0.0837557251908397,-0.052490234375,0.24462890625,0.660888671875
5.434,-0.261618320610687,0.33719083969465646,0.08274809160305344,-0.13134765625,0.223388671875,0.636962890625
5.439,-0.2580763358778626,0.318412213740458,0.07917557251908397,-0.213623046875,0.194580078125,0.616455078125
5.444,-0.25642748091603057,0.29474809160305343,0.07282442748091603,-0.291259765625,0.161376953125,0.605712890625
5.449,-0.2529770992366412,0.268,0.06219847328244275,-0.342041015625,0.127197265625,0.5947265625
5.454,-0.24784732824427483,0.22980152671755727,0.04867175572519084,-0.37939453125,0.09130859375,0.578369140625
5.459,-0.24274809160305344,0.18485496183206107,0.034961832061068704,-0.408203125,0.078369140625,0.574951171875
5.464,-0.2356030534351145,0.14525190839694657,0.022595419847328244,-0.387939453125,0.057373046875,0.5546875
5.469,-0.229587786259542,0.11068702290076335,0.009954198473282442,-0.346923828125,0.039794921875,0.5439453125
5.474,-0.22149618320610687,0.08106870229007633,0.0017709923664122138,-0.295166015625,0.025390625,0.517822265625
5.479,-0.2125801526717557,0.05630534351145038,-0.004641221374045801,-0.2548828125,0.004638671875,0.5029296875
5.484,-0.2033587786259542,0.04381679389312977,-0.009740458015267177,-0.2109375,-0.009033203125,0.484619140625
5.489,-0.19633587786259543,0.04280916030534351,-0.013007633587786258,-0.170654296875,-0.026123046875,0.474609375
5.494,-0.1883969465648855,0.04925190839694657,-0.014564885496183207,-0.1357421875,-0.033203125,0.4755859375
5.499,-0.1797862595419847,0.056519083969465644,-0.016396946564885495,-0.109619140625,-0.044677734375,0.484130859375
5.504,-0.17364885496183205,0.06589312977099236,-0.015572519083969465,-0.098388671875,-0.049072265625,0.471923828125
5.509,-0.16677862595419848,0.0759083969465649,-0.013557251908396946,-0.10302734375,-0.065185546875,0.462890625
